time,altitude,rc_ele,rc_thr,rc_rud,tx_ele,tx_thr,tx_rud,acc_X,acc_Y,acc_Z,gyro_pitch,gyro_roll,gyro_yaw
7.500707,5.454756669600489,-287.2134132561303,1849.0000001359351,1.0490819058066752,1145.9591020691714,2011.0000008996483,1501.6876070678547,819.4847832142163,367.45718351485044,3481.103279365573,-35.19882836137249,-53.380783114554426,-28.383521580465064
7.50171,5.454409775317441,-287.4640924101879,1849.0000001396631,1.034676495903656,1145.6987454694417,2011.0000009023586,1501.605573755286,797.683287752163,354.5529352632975,3368.637970111927,-36.41449719346093,-49.7526881247604,-27.776699481417314
7.502709,5.454062347813491,-287.7364212051901,1849.000000143283,1.0187130204759285,1145.4217518049936,2011.0000009050898,1501.5205010452944,775.7370563932814,342.1995475444166,3255.499793254346,-37.612477497558736,-46.15317564559564,-27.188319954160004
7.503714,5.45371439246247,-288.0307678319562,1849.0000001467927,1.0011627469372892,1145.1278978737846,2011.00000090784,1501.4323608213954,753.6788073152828,330.4203464881172,3141.8567689982433,-38.79002468989166,-42.58806505654393,-26.61946082257275
7.504713,5.4533659146595825,-288.3474910335703,1849.0000001501905,0.9819976079105586,1144.8169689532401,2011.0000009106077,1501.3411265059945,731.541904772014,319.2364492399619,3027.879523912164,-39.94441037941536,-39.06311456334453,-26.071143677276748
7.505713,5.453016919821224,-288.686939612599,1849.0000001534738,0.9611902393608975,1144.4887591454717,2011.0000009133917,1501.2467731140553,709.3602730293869,308.6666470827767,2913.7408067926526,-41.0729315590999,-35.584003927401305,-25.54433026980682
7.506714,5.45266741338481,-289.0494519382118,1849.0000001566407,0.9387140188209466,1144.1430717206194,2011.0000009161902,1501.1492773065943,687.168307993735,298.72730036092304,2799.6149970682263,-42.172919807724625,-32.15631728997939,-25.039919125907954
7.507715,5.452317400808593,-289.4353554537112,1849.0000001596893,0.9145431036701805,1143.7797194579198,2011.0000009190014,1501.0486174439498,665.0007868114651,289.4322461661,2685.6776078988887,-43.24175046418557,-28.78552613704814,-24.558742389720447
7.508717,5.451966887571484,-289.84496618499344,1849.000000162617,0.8886524694299451,1143.3985249840907,2011.0000009218245,1500.94477363876,642.892775729757,280.79271967662424,2572.1047861343673,-44.276851736805554,-25.47697245851741,-24.101562911621127
7.509718,5.451615879172871,-290.2785882504689,1849.0000001654228,0.8610179480347262,1142.9993211086294,2011.0000009246585,1500.8377278085989,620.8795365171602,272.8172899636677,2459.072811290661,-45.27571371104725,-22.23585216463972,-23.66907159369887
7.51072,5.451264381132433,-290.736513372983,1849.0000001681067,0.8316162660393176,1142.581951155602,2011.0000009275016,1500.727463728211,598.9964317492729,265.5118109875047,2346.7575956900364,-46.23589722063504,-19.06719883164049,-23.261885008090765
7.511723,5.450912398989957,-291.21902039428784,1849.0000001706678,0.800425082720682,1142.1462692915065,2011.000000930352,1500.6139670812813,577.278829267653,258.87938840452324,2235.3341878840192,-47.15504254939155,-15.975867857482154,-22.8805433045828
7.512726,5.450559938305152,-291.72637479262454,1849.000000173107,0.7674230280324621,1141.692140848781,2011.0000009332068,1500.4972255116852,555.762006119516,252.92036269188506,2124.9762814423543,-48.030877933786755,-12.966521116690593,-22.525508424931918
7.513723,5.450207004657465,-292.25882820398607,1849.0000001754272,0.73258974036928,1141.219442644524,2011.0000009360635,1500.37722867415,534.4810522816235,247.63230897154241,2015.8557311443535,-48.8612278388926,-10.043612210196976,-22.197162642187465
7.514726,5.449853603645892,-292.81661794763846,1849.000000177631,0.6959059040971753,1140.7280632939942,2011.0000009389184,1500.25396828427,513.4707744640932,243.0100537790163,1908.142078554209,-49.64402098280369,-7.211372411943936,-21.895807443605264
7.515725,5.44949974088878,-293.3999665564866,1849.000000179721,0.6573532868057763,1140.2179035184472,2011.0000009417688,1500.127438167811,492.76560027870676,239.0457088752819,1802.0020889006175,-50.377298086333155,-4.473797418067413,-21.621662775134798
7.516728,5.449145422023645,-294.0090813128791,1849.000000181701,0.6169147762370693,1139.688876446868,2011.000000944611,1499.9976343092376,472.39948304188374,235.72872204317065,1697.5993011146938,-51.059219325752544,-1.8346350059605376,-21.37486666358449
7.517729,5.448790652706983,-294.64415379045346,1849.0000001835754,0.5745744168449372,1139.1409079111522,2011.0000009474422,1499.864554899393,452.4058074651829,233.04594464439103,1595.0935928089323,-51.68807146675643,0.7026262915236092,-21.155475229411216
7.518731,5.448435438614067,-295.30535940262934,1849.000000185348,0.5303174459389823,1138.5739367342858,2011.0000009502598,1499.7282003822672,432.817296466482,230.98171554159322,1494.6407619030442,-52.26227465835328,3.134767397858394,-20.96346309889684
7.51973,5.448079785438744,-295.9928569583663,1849.0000001870214,0.48413032936552236,1137.9879150110764,2011.0000009530602,1499.5885735007814,413.6659193135331,229.51796081421972,1396.3921265182232,-52.780388866493084,5.458847702768135,-20.798724219570186
7.520732,5.447723698893253,-296.70678822580436,1849.0000001885976,0.4360007966780668,1137.3828083809785,2011.0000009558405,1499.4456793415081,394.98280128959095,228.63430852003387,1300.4941446676048,-53.241119928701224,7.672212797856101,-20.661073077261612
7.521739,5.4473671847080185,-297.4472775044134,1849.0000001900783,0.38591787574903846,1136.7585962925614,2011.000000958599,1499.2995253782567,376.79813505016983,228.30821757984896,1207.0880551649886,-53.6433252119733,9.772500884843382,-20.55024630719067
7.522736,5.447010248631455,-298.2144312062813,1849.0000001914652,0.33387192677399946,1136.1152722591664,2011.0000009613348,1499.1501215144485,359.14109382309687,228.51511969581986,1116.3095410538738,-53.98601885605942,11.757647826085387,-20.465904685156502
7.523735,5.446652896429765,-299.00833744717403,1849.0000001927604,0.2798546756191862,1135.452844105299,2011.000000964046,1498.9974801242024,342.0397465932198,229.2285730594428,1028.288416722722,-54.26837658333393,13.625890832250146,-20.40763547863936
7.524737,5.446295133886744,-299.8290656480047,1849.0000001939654,0.2238592464627449,1134.7713342032985,2011.0000009667308,1498.841616092048,325.52097541003235,230.42042647031067,943.1483397196376,-54.48974005567057,15.375770807740379,-20.37495513199419
7.525738,5.445936966803562,-300.67666614734975,1849.0000001950823,0.1658801936796942,1134.0707796998413,2011.0000009693883,1498.6825468511897,309.6103949616654,232.06099237641624,861.0065481117681,-54.64962075863017,17.00613339777396,-20.367312255405437
7.52674,5.445578400998575,-301.551169825654,1849.0000001961128,0.10591353292032638,1133.351232731819,2011.0000009720168,1498.5202924202347,294.332274571532,234.11922726585843,781.9736240548962,-54.74770339339109,18.516128799374656,-20.384090884075587
7.527742,5.445219442307114,-302.4525877417656,1849.0000001970595,0.04395677133149578,1132.6127606311475,2011.0000009746143,1498.3548754383064,279.70946279267446,236.56291779084353,706.1532840512208,-54.78384875646403,19.90521041067099,-20.424613972219415
7.528743,5.4448600965812775,-303.38091078244275,1849.0000001979254,-0.019991063129968845,1131.855446118062,2011.000000977179,1498.1863211984573,265.76331479714474,239.358870988336,633.6421961826167,-54.758096086219965,21.173132399364075,-20.488147085830324
7.529745,5.444500369689718,-304.3361093254726,1849.000000198713,-0.08592939334264627,1131.0793874824549,2011.0000009797093,1498.0146576792965,252.5136227812311,242.47310697555685,564.52982441649,-54.67066485449965,22.319946273456257,-20.573902258958398
7.530752,5.444140267517434,-305.3181329170432,1849.000000199426,-0.15385606567571597,1130.2846987528205,2011.0000009822031,1497.8399155747459,239.97854963024304,245.87105253822943,498.89829989481257,-54.52195598224107,23.345996536792946,-20.681041980365777
7.531749,5.4437797959655585,-306.3269099640045,1849.0000002000681,-0.2237673237050195,1129.4715098523766,2011.0000009846597,1497.6621283218424,228.17456610772865,249.51773408882437,436.82231893694126,-54.312552460585415,24.251915509546023,-20.80868328057418
7.53275,5.4434189609511465,-307.36234744165296,1849.000000200643,-0.2956577830410261,1128.6399667419346,2011.000000987078,1497.4813321265012,217.11639185269746,253.37796854457866,378.3690673169518,-54.043219362655165,25.038617389537368,-20.95590189291409
7.533752,5.44305776840696,-308.42433061766934,1849.000000201154,-0.36952040731965474,1127.790231549101,2011.0000009894582,1497.297565987149,206.81694048424973,257.41655075552603,323.5981702207308,-53.714903235004854,25.70729162379264,-21.12173646565237
7.534754,5.442696224281257,-309.5127227928352,1849.0000002016052,-0.44534648540675814,1126.922482683397,2011.000000991801,1497.110871716148,197.28726912586677,261.59843619798283,272.5616671515987,-53.32873086088104,26.25939565065402,-21.30519280525128
7.535753,5.442334334537578,-310.62736505914523,1849.0000002020008,-0.5231256098668573,1126.036914936893,2011.0000009941084,1496.921293958923,188.53653267163583,265.88891773755995,225.304010939883,-52.88600738990138,26.696647061659334,-21.505248133165523
7.536754,5.4419721051545205,-311.76807607592883,1849.0000002023446,-0.6028456567464362,1125.133739569962,2011.0000009963812,1496.728880210705,180.57194312408726,270.2537953574368,181.86208992459046,-52.388213831088294,27.0210152203177,-21.72085534030256
7.537758,5.441609542125524,-312.9346518645837,1849.0000002026402,-0.6844927667217502,1124.2131843817692,2011.0000009986213,1496.5336808308139,173.3987343381859,274.6595378419018,142.2652723157395,-51.83700390902321,27.234712363054097,-21.95094722437636
7.53876,5.441246651458653,-314.1268656225165,1849.0000002028912,-0.7680513276606784,1123.275493765122,2011.0000010008305,1496.3357490543872,167.02013250815742,279.0734355010351,106.53547171426084,-51.23420028665364,27.340184196813354,-22.19444069597412
7.539763,5.440883439176376,-315.34446755687424,1849.0000002031022,-0.8535039586476523,1122.3209287453165,2011.0000010030105,1496.135141001482,161.43733273281055,283.4637431185247,74.68723276174168,-50.5817901629155,27.340099998490466,-22.450240939379746
7.540762,5.440519911315342,-316.5871847386406,1849.0000002032778,-0.9408314955201176,1121.3497670026295,2011.0000010051624,1495.9319156834636,156.64948199029027,287.7998123997982,46.7278359128187,-49.88192025842893,27.237342213513887,-22.717245514123476
7.541762,5.4401560739261585,-317.854720977658,1849.0000002034224,-1.0300129779643363,1120.3623028781199,2011.000001007286,1495.7261350066053,152.65366884424813,292.0522132913651,22.657420366192337,-49.13689120767727,27.034995544553123,-22.994348382860785
7.542763,5.439791933073164,-319.1467567191233,1849.0000002035415,-1.1210256382176018,1119.3588473624122,2011.0000010093825,1495.5178637728193,149.4449201898916,296.1928436346218,2.4691242530354622,-48.34915138102215,26.736335516656307,-23.280443850598864
7.543764,5.439427494834207,-320.4629489620889,1849.0000002036406,-1.21384489142313,1118.339728067156,2011.0000010114516,1495.3071696774414,147.01620533012942,300.195026708912,-13.85075873944988,-47.52129016458602,26.344816502610207,-23.574430399616972
7.544764,5.439062765300421,-321.8029312004881,1849.0000002037252,-1.3084443276829951,1117.3052891788684,2011.0000010134925,1495.0941233039978,145.35844764908413,304.03359631001877,-26.322607040386135,-46.65603073039673,25.86405919257648,-23.875214403773413
7.545766,5.438697750576002,-323.16631338718395,1849.0000002037998,-1.4047957058534983,1116.2558913948806,2011.0000010155043,1494.8787981158825,144.46054412273193,307.68496910213736,-34.97328379574639,-45.75622233294145,25.297837495542442,-24.18171370529153
7.546768,5.438332456777972,-324.55268192152283,1849.000000203868,-1.5028689491262863,1115.1919118411329,2011.0000010174851,1494.6612704448726,144.3093928745854,311.12720407436984,-39.83593492815249,-44.82483217108061,24.65006486680063,-24.492861036603635
7.547767,5.437966890035953,-325.9615996608573,1849.0000002039326,-1.6026321424373933,1114.1137439715767,2011.0000010194333,1494.4416194764162,144.88992894846373,314.34004902756755,-40.94977308932694,-43.864936856034014,23.92478006505501,-24.807607269546654
7.548774,5.437601056491929,-327.3926059564788,1849.0000002039963,-1.704051531745125,1113.0217974489624,2011.0000010213469,1494.2199272316313,146.18516843083282,317.30497411458043,-38.35984785044317,-42.87971352705555,23.126132354125907,-25.124924474365308
7.54977,5.4372349623000185,-328.8452167143801,1849.0000002040617,-1.8070915252163768,1111.916498006815,2011.000001023225,1493.99627854595,148.17626101224786,320.0051925571184,-32.11680240312267,-41.87243065676936,22.25836617682784,-25.443808771769632
7.550771,5.436868613626232,-330.3189244812443,1849.0000002041327,-1.9117146963595442,1110.7982872924167,2011.0000010250658,1493.7707610443535,150.84255103138554,322.42566876560534,-22.276616992489807,-40.846438588100376,21.325805341696004,-25.763282962832744
7.551773,5.4365020166482525,-331.8131985560321,1849.0000002042118,-2.0178817891406595,1109.6676226906447,2011.0000010268675,1493.5434651131386,154.16164699631628,324.5531141942182,-8.900339278041116,-39.805159844234815,20.3328367761319,-26.08239892385853
7.552772,5.436135177555195,-333.32748512751306,1849.0000002043018,-2.1255517251177736,1108.5249771285303,2011.0000010286292,1493.3144838681706,158.10949952643,326.37597137076244,7.946198178733844,-38.75207925201133,19.283893911572452,-26.400239756459552
7.553773,5.435768102547372,-334.8612074380597,1849.0000002044046,-2.234681612626881,1107.370838860434,2011.00000103035,1493.0839131195708,162.66048760532817,327.8843866485336,28.19267306751514,-37.69073391749544,18.183439776949434,-26.715921686822558
7.554777,5.435400797836061,-336.4137659739932,1849.000000204521,-2.345226758050874,1106.2057112337557,2011.0000010320289,1492.8518513327945,167.78751298079598,329.07017233270307,51.76458082692522,-36.62470309014105,17.035949885769472,-27.02859571224095
7.555775,5.435033269643264,-337.9845386827407,1849.000000204651,-2.4571406792010873,1105.0301124351217,2011.000001033666,1492.6183995860642,173.4621024936854,329.92675893452713,78.58355409851656,-35.557597948933555,15.845895009818706,-27.337448997087417
7.556778,5.434665524201464,-339.5728812170318,1849.0000002047948,-2.570375120838982,1103.8445752170287,2011.0000010352612,1492.3836615241225,179.65451806439248,330.44913840017534,108.56769363069071,-34.49305134043284,14.617723939337834,-27.64170602411033
7.557781,5.434297567753387,-341.1781272063284,1849.0000002049521,-2.684880072363388,1102.6496466049425,2011.0000010368137,1492.147743308273,186.33387401490666,330.6337992446857,141.63190998642835,-33.434707494952356,13.355846336079594,-27.94062951000705
7.558781,5.433929406551763,-342.79958855564865,1849.0000002051231,-2.800603787686505,1101.4458875848877,2011.0000010383226,1491.910753562686,193.46826135737803,330.47865459326425,177.6882752512907,-32.386211743422045,12.064615792181032,-28.23352109655494
7.559779,5.43356104685908,-344.43655577190844,1849.0000002053077,-2.917492807319517,1100.2338727715937,2011.0000010397869,1491.672803316947,201.0248786377554,329.9829641900667,216.6463837680156,-31.35120025381763,10.74831321399355,-28.5197218301789
7.560782,5.433192494947339,-346.0882983178664,1849.000000205506,-3.035491982686242,1099.0141900572921,2011.0000010412048,1491.434005944833,208.97016888582445,329.14725147738005,258.41372074642624,-30.333289802450512,9.4111306552105,-28.798612443777074
7.561782,5.432823757097808,-347.7540649937203,1849.0000002057188,-3.1545445026806895,1097.7874402412954,2011.0000010425745,1491.1944770993082,217.2699621909468,327.9732168748706,302.89603741783156,-29.33606759217903,8.057155726943197,-29.069613455037313
7.562785,5.432454839600777,-349.433084346361,1849.0000002059471,-3.2745919224817257,1096.5542366405225,2011.0000010438932,1490.95433464374,225.88962339549906,326.4636483987641,349.99773122733893,-28.363081127104238,6.690356713080133,-29.33218509549381
7.563786,5.432085748755321,-351.12456510624855,1849.0000002061918,-3.395574194635289,1095.3152046811751,2011.0000010451583,1490.7136985793304,234.79420437456386,324.6223307542466,399.6222293912277,-27.417828151835593,5.314568516891299,-29.585827084308832
7.564788,5.4317164908690545,-352.827696651831,1849.0000002064537,-3.5174297024117056,1094.0709814717984,2011.0000010463662,1490.4726909687804,243.94860034966788,322.4539540109947,451.672373995236,-26.50374666306804,3.933479559325576,-29.830078260322487
7.565788,5.431347072257883,-354.54164950138073,1849.0000002067338,-3.64009529544267,1092.8222153580068,2011.0000010475121,1490.2314358561932,253.31770966501247,319.96402293179034,506.0508066783916,-25.624205001947953,2.5506197409683717,-30.064516085403998
7.566795,5.43097749924575,-356.265575832077,1849.000000207033,-3.763506327639327,1091.5695654591877,2011.0000010485926,1489.9900591832459,262.8665964355728,317.1587679682625,562.6603508404388,-24.782492037333274,1.1693495685250246,-30.288756031637696
7.56779,5.430607778164394,-357.99861002611397,1849.0000002073514,-3.887596697389686,1090.3137011875406,2011.0000010496058,1489.748688701655,272.5606554568445,314.0450588670757,621.4043892329195,-23.981807452307844,-0.20714946660370834,-30.502450864392173
7.568792,5.430237915353097,-359.7398692435649,1849.000000207688,-4.012298890030255,1089.0553017498455,2011.0000010505507,1489.5074538819742,282.36577874552046,310.6303217460453,682.1872347477572,-23.225252149001495,-1.5758831851842692,-30.705289832763548
7.569794,5.429867917158426,-361.48845402168064,1849.0000002080417,-4.137544022583308,1087.7950556323945,2011.0000010514266,1489.2664858187666,292.24852305898287,306.9224604048519,744.9144922051321,-22.515818789850442,-2.9340516364923404,-30.89699777812857
7.570796,5.429497789933991,-363.2434489002496,1849.0000002084118,-4.263261890747643,1086.5336600695568,2011.0000010522315,1489.0259171322025,302.1762777194505,302.929782531655,809.4934089658796,-21.85638249683569,-4.279054595704832,-31.07733417054785
7.571797,5.429127540040189,-365.00392307259347,1849.0000002087975,-4.389381018126992,1085.2718204964801,2011.0000010529636,1488.785881866142,312.11743204632603,298.6609313574369,875.8332122527022,-21.24969173375452,-5.608495622079356,-31.246092081606754
7.572799,5.428757173843956,-366.76893106172366,1849.0000002091958,-4.51582870767643,1084.010249986464,2011.000001053622,1488.5465153827658,322.04154167831575,294.12482319669675,943.8454311579054,-20.698359399951265,-6.92018467609051,-31.4030971011494
7.573799,5.428386697718509,-368.53751342112906,1849.0000002096042,-4.642531095343205,1082.7496686735772,2011.000001054206,1488.3079542538362,331.91949304603537,289.33059119840607,1013.4442014404626,-20.20485416691701,-8.212139312014632,-31.548206204454182
7.574801,5.4280161180430975,-370.3086974596171,1849.0000002100198,-4.769413205874358,1081.4908031611255,2011.0000010547144,1488.0703361486685,341.7236652370897,284.2875355170946,1084.5465513680995,-19.771492091626538,-9.482584480253145,-31.68130657580841
7.575804,5.427645441202746,-372.0814979895781,1849.00000021044,-4.896399010759339,1080.2343859166147,2011.0000010551473,1487.8337997189055,351.4280884801793,279.00508000269446,1157.072667036015,-19.400428542411913,-10.729950990363506,-31.802314394103927
7.576803,5.427274673587996,-373.8549180979906,1849.000000210862,-5.023411488271545,1078.9811546538847,2011.000001055503,1487.5984844801976,361.0085984638056,273.4927354013848,1230.946135787593,-19.093650474591044,-11.952872700583596,-31.911173585881283
7.577804,5.42690382159465,-375.62794993943595,1849.0000002112822,-5.150372685568275,1077.7318517031376,2011.0000010557794,1487.364530690898,370.4429856996722,267.76006896000376,1306.0941665685782,-18.85296909396778,-13.150182511969897,-32.007854551100394
7.578805,5.426532891623521,-377.39957555033726,1849.0000002116979,-5.2772037828040865,1076.4872233695999,2011.0000010559759,1487.1320792278939,379.7111391417821,261.8166802351847,1382.4477862592769,-18.680012946735392,-14.320907254785523,-32.09235286674041
7.579803,5.426161890080164,-379.1687676835881,1849.0000002121071,-5.403825159207887,1075.2480192815945,2011.0000010560914,1486.9012714597052,388.79518328013427,255.67218282646655,1459.9420112442363,-18.57622147423935,-15.46426156144262,-32.164687973114184
7.580805,5.425790823374624,-380.9344906626883,1849.0000002125082,-5.530156461069314,1074.0149917288104,2011.000001056126,1486.6722491169864,397.6796079432068,249.33619168122095,1538.5159936907464,-18.542839070320845,-16.579640824394094,-32.224901847578145
7.581808,5.425419697921176,-382.69570125445716,1849.0000002129002,-5.656116671575088,1072.7888949915807,2011.0000010560796,1486.4451541605845,406.35139006614713,242.81831555916108,1618.113142212099,-18.58090967742165,-17.66661333931067,-32.2730576702328
7.582811,5.425048520138071,-384.4513495593526,1849.0000002132813,-5.781624182430985,1071.5704846619958,2011.0000010559522,1486.2201286473119,414.80010671163217,236.12815419611195,1698.6812167850337,-18.691271955320367,-18.724911734052313,-32.30923848634464
7.58381,5.424677296447272,-386.20037991838313,1849.0000002136496,-5.906596867199969,1070.3605169577027,2011.000001055744,1485.9973145936074,423.01803866744905,229.27529967102404,1780.1723979701194,-18.874555053402247,-19.754423782578105,-32.333545870604574
7.584817,5.424306033274193,-387.94173183555966,1849.0000002140043,-6.030952156281764,1069.1597480292558,2011.0000010554547,1485.776853837264,431.0002639886061,222.26934145684797,1862.5433306466582,-19.131175013942592,-20.755182700153956,-32.34609859889974
7.585814,5.4239347370474364,-389.67434091480027,1849.0000002143436,-6.154607113453764,1067.9689332619093,2011.0000010550846,1485.5588878974158,438.74474090174004,215.11987462425463,1945.755142618546,-19.46133183037108,-21.727357012119704,-32.347031333877815
7.586815,5.423563414198537,-391.3971398101623,1849.0000002146655,-6.277478513887729,1066.7888265727593,2011.0000010546325,1485.3435578329866,446.2523795452113,207.8365106661337,2029.773438573814,-19.86500718106848,-22.671240083171288,-32.33649333109781
7.587815,5.423192071161698,-393.1090591882439,1849.0000002149693,-6.399482923551085,1065.620179704159,2011.0000010540978,1485.1310040998064,453.52710207896195,200.4288904187989,2114.5682699883846,-20.341962855742747,-23.587239387683656,-32.31464717291547
7.588817,5.422820714373526,-394.8090287015641,1849.000000215254,-6.520536779896163,1064.463741514336,2011.0000010534802,1484.921366406616,460.5758907631661,192.90669857122958,2200.114081654761,-20.89173988761526,-24.475865594251736,-32.281667537424106
7.589818,5.422449350272772,-396.49597797170105,1849.0000002155177,-6.640556473735338,1063.3202572661392,2011.0000010527808,1484.714783570173,467.4088236730062,185.27967927501712,2286.38963559029,-21.513658400390714,-25.337721529833463,-32.23774000979759
7.590821,5.4220779853000645,-398.16883758094554,1849.0000002157587,-6.759458432195193,1062.1904679148458,2011.0000010520014,1484.511393369678,474.03909778779996,177.55765239379826,2373.3779131388587,-22.206818174249108,-26.173491081308118,-32.18305994332661
7.591822,5.421706625897646,-399.82654007120146,1849.0000002159743,-6.8771592026385004,1061.0751093959595,2011.0000010511437,1484.3113324007418,480.4830392657026,169.7505299608741,2461.065996126219,-22.97009993029768,-26.983928085624452,-32.117831377321664
7.592824,5.421335278509109,-401.4680209488512,1849.0000002161617,-6.993575537439163,1059.974911913927,2011.0000010502097,1484.1147359291183,486.76010078991754,161.8683324463952,2549.4449279647583,-23.802167328899383,-27.769845254650857,-32.04226601886676
7.593827,5.420963949579137,-403.09221969428455,1849.000000216318,-7.10862447949195,1058.890599232705,2011.000001049201,1483.9217377444254,492.8928459480362,153.92120446967084,2638.5095556315337,-24.7014696746549,-28.532103177792038,-31.956582295167824
7.594826,5.420592645553236,-404.6980807747829,1849.00000021644,-7.22222344833604,1057.822887969111,2011.0000010481206,1483.7324700140832,498.9069206815232,145.91942962634658,2728.2583534676896,-25.66624531950889,-29.271599444469025,-31.861004482959103
7.595825,5.420221372877472,-406.284554659434,1849.0000002165227,-7.334290326768873,1056.7724868898895,2011.000001046971,1483.5470631376977,504.83101191566806,137.87344413297112,2818.693229772761,-26.69452575495779,-29.989257929412272,-31.75576192106687
7.596827,5.419850137998201,-407.8505988347473,1849.0000002165627,-7.444743547824685,1055.7400962134263,2011.0000010457559,1483.3656456021192,510.69679354934016,129.7938490217982,2909.819317198729,-27.784140384016055,-30.686018286108208,-31.64108831173675
7.597827,5.41947894736181,-409.3951788196315,1849.0000002165564,-7.553502181990344,1054.7264069170312,2011.000001044478,1483.1883438374011,516.5388600463004,121.69142064603058,3001.644747990198,-28.932721962996204,-31.362825697583744,-31.51722111569419
7.598831,5.419107807414452,-410.91726917839156,1849.0000002165,-7.660486024529688,1053.7321000506995,2011.0000010431402,1483.015282073887,522.3946479235781,113.57711928007464,3094.1804151712167,-30.137712702174646,-32.02062093896092,-31.38440104509811
7.59983,5.4187367246017715,-412.4158545304023,1849.00000021639,-7.76561568278658,1052.7578460582513,2011.000001041744,1482.846582200643,528.3043454761072,105.46209562093162,3187.439720846207,-31.39637101337863,-32.66033081246058,-31.2428716574534
7.600832,5.41836570536864,-413.8899305551165,1849.0000002162244,-7.868812663336175,1051.804304106729,2011.0000010402916,1482.682363625461,534.3107911097699,97.35769501573692,3281.438312859823,-32.705778892093356,-33.28285902181719,-31.09287905203975
7.601835,5.417994756158883,-415.33850499107064,1849.0000002160016,-7.969999458853694,1050.8721214249294,2011.0000010387846,1482.5227431366434,540.4593606771863,89.2754592564811,3376.193811144226,-34.06284992246798,-33.889077558128946,-30.934671668518632
7.60284,5.417623883415015,-416.76059862755824,1849.0000002157205,-8.069099634569987,1049.9619326519276,2011.000001037224,1482.3678347667883,546.7978442224455,81.22712579551029,3471.7255251671795,-35.464337895824656,-34.479818672000064,-30.768500185336002
7.603836,5.417253093577962,-418.15524628764814,1849.0000002153813,-8.166037914183644,1049.074359196443,2011.0000010356096,1482.2177496587785,553.3763125433985,73.22462424368561,3568.054163975807,-36.906846036535484,-35.05586750698628,-30.59461751365808
7.604839,5.416882393086805,-419.52149780123636,1849.0000002149839,-8.260740265100127,1048.2100086078872,2011.0000010339425,1482.072595934186,560.2469739747888,65.2800700165225,3665.2015404046447,-38.38683683225763,-35.61795546676699,-30.413278881050243
7.605839,5.416511788378507,-420.85841896682973,1849.0000002145273,-8.353133982869215,1047.3694739599132,2011.0000010322235,1481.9324785642912,567.4640217847697,57.40575499265496,3763.19027107927,-39.900642466937676,-36.16675438301066,-30.22474199785582
7.606841,5.4161412858876465,-422.1650925007736,1849.0000002140116,-8.443147774692886,1046.5533332472758,2011.0000010304536,1481.7974992439297,575.0834725641831,49.61413504559677,3862.043473894898,-41.44447585353383,-36.70287154214575,-30.029267297994014
7.607841,5.41577089204615,-423.4406189726502,1849.0000002134368,-8.53071184187659,1045.7621487967779,2011.0000010286337,1481.6677562683592,583.162995975589,41.91781430772648,3961.7844646792946,-43.014442258882035,-37.22684561678511,-29.82711824446522
7.608844,5.415400613283025,-424.6841177255909,1849.000000212803,-8.615757961097556,1044.9964666930641,2011.0000010267638,1481.5433444133473,591.7617362208313,34.32952602944914,4062.436454757448,-44.606551506369144,-37.73914353160519,-29.618561688207922
7.609844,5.415030456024087,-425.89472778026754,1849.000000212109,-8.698219564364349,1044.2568162199987,2011.000001024843,1481.4243548186823,600.9401255854314,26.86210991108909,4164.022251118119,-46.216730734228484,-38.24015827520569,-29.40386826729637
7.610846,5.414660426691685,-427.071608721352,1849.000000211355,-8.778031817542523,1043.5437093183375,2011.0000010228712,1481.3108748752957,610.7596904285004,19.528485813264854,4266.563960837312,-47.84083767905186,-38.730207650624315,-29.183312832176412
7.611851,5.414290531704436,-428.21394156525554,1849.000000210541,-8.855131697321553,1042.8576400603881,2011.0000010208475,1481.2029881161925,621.2828500103864,12.341623794240705,4370.082701340156,-49.47467444551074,-39.209533939453564,-28.957174882097398
7.612849,5.413920777476955,-429.3209296079865,1849.000000209666,-8.929458066498723,1042.1990841423253,2011.0000010187712,1481.1007741113833,632.572708587498,5.314510479156062,4474.598317981834,-51.114001713865584,-39.67830443904203,-28.725738998342486
7.61385,5.413551170419586,-430.39179925199403,1849.0000002087302,-9.000951747456012,1041.5684983948104,2011.000001016642,1481.004308367006,644.6928412534382,-1.5398881659841772,4580.129110302675,-52.754553326447834,-40.13661281956538,-28.489295261303102
7.614853,5.413181716938132,-431.4258008108918,1849.0000002077343,-9.069555593706676,1040.9663203125403,2011.0000010144593,1480.9136622288204,657.7070740648822,-8.208667505958964,4686.691568165765,-54.392051183633825,-40.58448123784336,-28.248139640714566
7.615852,5.412812423433577,-432.42220929098767,1849.0000002066793,-9.135214559389073,1040.3929676033238,2011.0000010122228,1480.8289027902572,671.6792590557213,-14.679028122089406,4794.300118821356,-56.022220370310464,-41.02186313730663,-28.00257435116438
7.616854,5.412443296301828,-433.38032514857537,1849.000000205567,-9.197875766586726,1039.8488377572532,2011.0000010099327,1480.7500928051888,686.6730448096528,-20.9383225976094,4902.966885765288,-57.6408044267199,-41.44864665779375,-27.752908167931455
7.617854,5.412074341933441,-434.29947502197916,1849.0000002044,-9.257488570355608,1039.334307636517,2011.000001007589,1480.6772906055833,702.7516433257285,-26.974104808656097,5012.701460073231,-59.24358067334027,-41.864658573960895,-27.499456700973507
7.618857,5.411705566713356,-435.17901243737623,1849.0000002031804,-9.314004621342335,1038.8497330863624,2011.0000010051915,1480.610550024193,719.9775939700666,-32.77418125504277,5123.510684704277,-60.82637549788079,-42.269668676125534,-27.242542627179716
7.619855,5.411336977020614,-436.0183184874577,1849.0000002019108,-9.367377925880218,1038.3954485676966,2011.0000010027404,1480.549920322422,738.4125253574991,-38.32666390400832,5235.398452081896,-62.38507951296844,-42.66339450188008,-26.982495882632076
7.620863,5.410968579228101,-436.816802482029,1849.0000002005947,-9.41756490345394,1037.9717668117808,2011.0000010002366,1480.495446123503,758.1169160477878,-43.62002397199719,5348.365515084061,-63.915662494993434,-43.045506321001234,-26.719653817480996
7.62186,5.410600379702267,-437.5739025696892,1849.000000199236,-9.464524441427928,1037.5789784974513,2011.00000099768,1480.447167351109,779.1498549714274,-48.643146034920754,5462.409311414148,-65.41418801730651,-43.415632270845315,-26.454361316248086
7.622861,5.410232384802863,-438.28908632976743,1849.0000001978372,-9.508217946938101,1037.2173519512676,2011.0000009950706,1480.4051191735127,801.5688025197564,-53.38538183601538,5577.5238011865395,-66.87682769435767,-43.7733635357531,-26.18697088615007
7.623861,5.40986460088267,-438.9618513337362,1849.000000196401,-9.54860939585167,1036.887132870964,2011.0000009924104,1480.3693319533959,825.4293532430321,-57.83660315145406,5693.699317452009,-68.29987495760396,-44.118259463314246,-25.917842715580196
7.624863,5.409497034287226,-439.59172567536115,1849.0000001949304,-9.585665378704874,1036.588544072549,2011.0000009897,1480.3398312034112,850.7850010984326,-61.98725307616377,5810.922429312619,-69.6797582892759,-44.44985251367156,-25.64734470427327
7.625865,5.409129691354563,-440.17826846888926,1849.000000193427,-9.619355143533877,1036.3217852613661,2011.0000009869416,1480.3166375475764,877.6869081779439,-65.82839510480707,5929.175817237337,-71.0130538463089,-44.76765294555706,-25.375852465992725
7.626866,5.408762578414924,-440.7210703146219,1849.0000001918936,-9.649650635519608,1036.0870328274,2011.0000009841376,1480.2997666885774,906.1836778244331,-69.35175940478489,6048.438160188631,-72.29649741359604,-45.07115315364889,-25.103749303974677
7.627868,5.408395701790504,-441.2197537312622,1849.0000001903338,-9.676526533373146,1035.8844396650773,2011.00000098129,1480.289229381048,936.3211330137375,-72.54978570869328,6168.684034205537,-73.52699563288934,-45.35983158478892,-24.831426158991167
7.62887,5.408029067795181,-441.6739735544702,1849.0000001887504,-9.699960282394146,1035.7141350177824,2011.0000009784014,1480.2850314108814,968.1421008422567,-75.41566229201979,6289.883822156623,-74.70163646097248,-45.63315617439608,-24.5592815297186
7.629875,5.407662682734248,-442.08341730110504,1849.000000187146,-9.7199321241409,1035.5762243472802,2011.0000009754756,1480.2871735806164,1001.6862039144584,-77.94336054665168,6412.003634471795,-75.81769881788846,-45.89058725836214,-24.28772136491444
7.630873,5.407296552904143,-442.44780549867994,1849.0000001855244,-9.736425122656605,1035.4707892282024,2011.000000972517,1480.2956517009397,1036.9896593742403,-80.12766471023727,6535.005240778548,-76.87266139275538,-46.13157992962974,-24.017158926528154
7.631874,5.406930684592171,-442.76689197960116,1849.0000001838882,-9.749425187202435,1035.3978872677267,2011.0000009695293,1480.310456588328,1074.085086269818,-81.96419636377505,6658.846012499185,-77.86421058087639,-46.355585822542935,-23.748014622295006
7.632875,5.406565084076251,-443.0404641398092,1849.0000001822402,-9.758921091454011,1035.3575520505492,2011.0000009665162,1480.3315740688486,1113.0013218854588,-83.44943336359128,6783.478876602966,-78.7902475313338,-46.562054321915404,-23.48071580574916
7.633876,5.406199757624632,-443.26834316148586,1849.0000001805831,-9.764904489123811,1035.3497931092165,2011.000000963482,1480.3589849881237,1153.7632476167537,-84.58072292841781,6908.852280843698,-79.64889428894475,-46.75043320743793,-23.215696541137078
7.634877,5.405834711495627,-443.450384199539,1849.0000001789197,-9.767369925978018,1035.3745959198573,2011.0000009604325,1480.392665227456,1196.3916249110612,-85.35628865764896,7034.910170941311,-80.43849901824117,-46.920168757317285,-22.953397330583897
7.635877,5.405469951937346,-443.58647653162296,1849.0000001772526,-9.766314848222228,1035.4319219233225,2011.000000957372,1480.4325857261058,1240.9029417431352,-85.77523131362923,7161.591980278309,-81.15764029992113,-47.07070534770413,-22.69426480122141
7.63688,5.405105485187427,-443.6765436714989,1849.0000001755855,-9.761739607236391,1035.521708571713,2011.0000009543053,1480.478712509694,1287.3092700495138,-85.83752325979331,7288.832632771837,-81.80513049197624,-47.20148459634702,-22.43875135083891
7.637883,5.404741317472773,-443.7205434455857,1849.000000173923,-9.753647460645306,1035.6438694002425,2011.0000009512376,1480.5310067246999,1335.618134505353,-85.54399650834866,7416.56255964308,-82.38001814849439,-47.31194410965872,-22.187314751763715
7.638889,5.404377455009285,-443.7184680325987,1849.0000001722685,-9.742044569716834,1035.7982941243586,2011.0000009481753,1480.5894246790097,1385.8323929947974,-84.89632439638056,7544.707730832857,-82.88158948920646,-47.40151590141713,-21.940417713839025
7.639884,5.404013904001593,-443.67034396621915,1849.000000170626,-9.726939993085972,1035.9848487620065,2011.000000945124,1480.6539178884716,1437.950129100601,-83.89699697785143,7673.189701801988,-83.30936891272194,-47.4696245579647,-21.698527408361123
7.640886,5.4036506706427945,-443.5762321007823,1849.000000168999,-9.70834567680888,1036.2033757809002,2011.000000942088,1480.7244331293873,1491.9645569198158,-82.54929029066285,7801.925676405666,-83.66311854661927,-47.51568522853125,-21.46211495563017
7.641887,5.4032877611141865,-443.43622754001956,1849.000000167391,-9.686276440756815,1036.4536942706277,2011.0000009390722,1480.8009124968723,1547.8639384986993,-80.8572297320062,7930.8285864432255,-83.94283682839935,-47.53910152020859,-21.231654879373753
7.64289,5.4029251815849975,-443.2504595289351,1849.0000001658057,-9.66074996136591,1036.7356001393914,2011.00000093608,1480.8832934690015,1605.6315141701625,-78.8255478503893,8059.807188360569,-84.14875611282086,-47.53926337569712,-21.00762453167046
7.643889,5.402562938212124,-443.01909130894336,1849.0000001642468,-9.631786750764727,1037.0488663351507,2011.000000933115,1480.9715089766514,1665.245446069643,-76.4596369373059,8188.766177426377,-84.28133930308547,-47.515545008937465,-20.790503492087208
7.644893,5.4022010371398625,-442.7423199364399,1849.000000162716,-9.599410132307431,1037.393243090906,2011.000000930181,1481.0654874789434,1726.6787750990693,-73.76549687362325,8317.606319520431,-84.34127550535096,-47.46730296958492,-20.580772944595708
7.645895,5.401839484499647,-442.4203760650244,1849.0000001612145,-9.563646212546486,1037.7684581938322,2011.0000009272815,1481.1651530441725,1789.899391602671,-70.74967875364207,8446.22460047007,-84.32947470815009,-47.39387440194021,-20.378915035508182
7.646897,5.401478286409784,-442.05352369164086,1849.000000159743,-9.52452384968471,1038.174217277936,2011.0000009244202,1481.270425436108,1854.8700200119983,-67.41922487206708,8574.514392656973,-84.24706149098151,-47.29457555704365,-20.18541221521131
7.6479,5.401117448975184,-441.64205986694674,1849.0000001583014,-9.48207461855271,1038.610204139883,2011.0000009216017,1481.3812202055396,1921.5482177097158,-63.78160571489668,8702.365638399913,-84.09536777016746,-47.16870060794833,-20.000746565932943
7.6489,5.400756978287104,-441.1863143702684,1849.0000001568908,-9.436332772163658,1039.0760810776117,2011.0000009188304,1481.4974487869265,1989.8863883514005,-59.844654643879586,8829.665049408963,-83.87592459531527,-47.01552080802443,-19.82539911715134
7.6499,5.400396880422879,-440.6866493495499,1849.000000155512,-9.387335199903568,1039.5714892513085,2011.0000009161101,1481.6190186000067,2059.831809870391,-55.616501005133195,8956.29632141133,-83.59045301610458,-46.834284021343045,-19.6598491495631
7.6509,5.400037161445667,-440.1434589267462,1849.000000154166,-9.335121382421384,1040.0960490663063,2011.0000009134435,1481.74583315621,2131.326677371105,-51.10550242511581,9082.140362876307,-83.2408540460366,-46.624214643819684,-19.504573487893545
7.651902,5.399677827404179,-439.5571687691618,1849.0000001528545,-9.279733343289335,1040.6493605774174,2011.0000009108323,1481.8777921697067,2204.308161089538,-46.32017708065523,9207.075536623102,-82.82919775700077,-46.38451392476102,-19.36004578239025
7.652903,5.399318884332425,-438.9282356272824,1849.0000001515793,-9.221215597510291,1041.2310039142055,2011.0000009082785,1482.0147916729156,2278.7084795642704,-41.26913674345406,9330.977912985409,-82.35771154626342,-46.1143606911118,-19.226735778567793
7.653906,5.398960338249453,-438.25714683969085,1849.0000001503424,-9.159615096955108,1041.8405397266545,2011.0000009057837,1482.1567241362857,2354.454988115869,-35.96102140287287,9453.72153313373,-81.82876762607523,-45.81291247091484,-19.105108574517978
7.654908,5.398602195159086,-437.5444198057091,1849.0000001491437,-9.0949811728193,1042.4775096506746,2011.000000903349,1482.3034785921561,2431.4702826765806,-30.404436263594434,9575.178681122261,-81.24486979586453,-45.47930700809757,-18.995623864651982
7.655907,5.39824446104966,-436.7906014264498,1849.0000001479823,-9.027365475194761,1043.1414367928546,2011.0000009009752,1482.4549407624838,2509.6723189458694,-24.607891897199078,9695.220163231812,-80.60863956791566,-45.11266415778789,-18.898735167980533
7.656914,5.39788714189377,-435.9962675150071,1849.0000001468563,-8.95682190985865,1043.8318262338378,2011.0000008986642,1482.6109931902242,2588.974546771978,-18.579748299420974,9813.715593222632,-79.92280172872735,-44.71208815025706,-18.81488903807929
7.657911,5.397530243648017,-435.1620221765601,1849.0000001457631,-8.883406572388097,1044.5481655496694,2011.0000008964178,1482.7715153741356,2669.286059577238,-12.328163568934386,9930.533682188941,-79.19016942873726,-44.27667021238243,-18.744524250957152
7.658914,5.397173772252745,-434.2884971592082,1849.0000001447,-8.80717767971573,1045.2899253504356,2011.0000008942368,1482.9363839067719,2750.511758557641,-5.861047879981212,10045.542531816876,-78.4136289018111,-43.80549153782682,-18.68807096634008
7.659913,5.396817733631794,-433.37635117639917,1849.000000143665,-8.72819549924732,1046.0565598354892,2011.0000008921222,1483.1054726154196,2832.552531297583,0.813976629298644,10158.609929984728,-77.59612392229155,-43.2976266002337,-18.64594985754596
7.660915,5.396462133692239,-432.426269201855,1849.0000001426563,-8.646522275668705,1046.8475073645318,2011.000000890075,1483.278652705728,2915.305444350906,7.6896094881776085,10269.603647802169,-76.74064011162918,-42.75214680692105,-18.618571205162027
7.661916,5.39610697832413,-431.4389617379429,1849.0000001416731,-8.562222155574627,1047.6621910438064,2011.000000888095,1483.4557929077794,2998.6639492513254,14.758898543934912,10378.391737355652,-75.85018920929691,-42.16812449328652,-18.606333949961723
7.662919,5.395752273400239,-430.41516405847455,1849.0000001407154,-8.475361110056912,1048.5000193266321,2011.0000008861814,1483.636759624342,3082.5181013307483,22.015259203283144,10484.842829600808,-74.92779342435671,-41.5446372602022,-18.60962470072352
7.663919,5.395398024775805,-429.3556354269578,1849.000000139784,-8.386006855393608,1049.3603866274943,2011.0000008843342,1483.8214170810586,3166.7547906442346,29.452485915900468,10588.826432009395,-73.97646998493146,-40.88077265820442,-18.628816692845273
7.664921,5.395044238288281,-428.26115829135887,1849.000000138881,-8.294228771984246,1050.242673948884,2011.0000008825534,1484.0096274783027,3251.2579842264277,37.0647556384593,10690.213225728145,-72.99921600277823,-40.175633223471834,-18.664268694108888
7.665927,5.394690919757086,-427.1325374564644,1849.000000138007,-8.200097821679458,1051.1462495200612,2011.0000008808381,1484.2012511444436,3335.908978836495,44.84662311094599,10788.87536213046,-71.99899376850007,-39.42834187138689,-18.71632385496209
7.666924,5.394338074983348,-425.9705992349669,1849.0000001371639,-8.103686463655832,1052.070469446895,2011.0000008791883,1484.3961466902604,3420.5866632869875,52.79300787526853,10884.686758731836,-70.9787165890044,-38.63804765349018,-18.78530850241167
7.667923,5.393985709749659,-424.776190578428,1849.0000001363544,-8.005068568989094,1053.0146783719115,2011.0000008776049,1484.594171164235,3505.167789396411,60.89917306766948,10977.523394489739,-69.94123527251581,-37.80393188222619,-18.871530878892305
7.668925,5.3936338298198265,-423.55017818930173,1849.0000001355813,-7.904319334080579,1053.978210143669,2011.0000008760887,1484.79518020846,3589.52725055635,69.16069612005327,11067.263604514228,-68.88932535827149,-36.925214624419745,-18.97527982983709
7.669925,5.393282440938618,-422.29344761523004,1849.0000001348474,-7.801515193093263,1054.9603884945684,2011.0000008746417,1484.9990282149024,3673.5383668629142,77.57343160995568,11153.788374173804,-67.82567517873026,-36.00116155847411,-19.096823445593095
7.670928,5.392931548831517,-421.00690232684525,1849.0000001341552,-7.696733729554337,1055.9605277261996,2011.0000008732648,1485.205568481761,3757.0731757309904,86.13346660346666,11236.98163249122,-66.75287483220437,-35.03109118167343,-19.23640766445502
7.671928,5.392581159204474,-419.6914627803379,1849.0000001335077,-7.5900535872813135,1056.9779334013194,2011.0000008719587,1485.4146533696703,3840.0027268901968,94.83706893862657,11316.730544587279,-65.67340613314684,-34.01438234303443,-19.394254844077558
7.672929,5.392231277743659,-418.3480654660662,1849.0000001329065,-7.48155438078794,1058.0119030415476,2011.0000008707245,1485.6261344574964,3922.1973806550736,103.68062899688084,11392.925802750877,-64.58963359554325,-32.950482064912556,-19.57056230895784
7.67393,5.391881910115212,-416.97766194450173,1849.0000001323535,-7.371316605324837,1059.0617268298681,2011.000000869564,1485.8398626974836,4003.527108369532,112.6605956049871,11465.461915496453,-63.50379649187061,-31.838913604504445,-19.765500882654912
7.674938,5.391533061965011,-415.58121787081683,1849.0000001318506,-7.259421546708016,1060.126688317006,2011.000000868479,1486.0556885695125,4083.8617939466108,121.77340679716858,11534.237493723582,-62.41800201604587,-30.67928469583001,-19.979213415150376
7.675934,5.3911847389184215,-414.15971200943403,1849.0000001313995,-7.145951191086164,1061.2060651307509,2011.0000008674713,1486.273462234235,4163.071535458051,131.01541624544927,11599.15553282753,-61.33421956415482,-29.471295904410134,-20.211813317958768
7.676936,5.39083694658006,-412.7141352398684,1849.000000131003,-7.030988134794997,1062.299129687287,2011.0000008665427,1486.4930336848558,4241.026945772359,140.38281623358995,11660.123689334847,-60.25427613240499,-28.214749020556667,-20.463383121672376
7.677938,5.390489690533541,-411.2454895552013,1849.0000001306619,-6.91461549444407,1063.4051499035886,2011.0000008656941,1486.7142528973418,4317.59945129283,149.87155810582414,11717.054550365621,-59.17985281864418,-26.909555412279047,-20.733973072055264
7.67894,5.390142976341246,-409.7547870545337,1849.000000130378,-6.796916817378039,1064.5233899099467,2011.0000008649256,1486.9369699788397,4392.661587905996,159.47727116475704,11769.865893965336,-58.11248240262283,-25.555744254571536,-21.023599781331622
7.679939,5.389796809544079,-408.24304893076993,1849.0000001301544,-6.677975992650711,1065.653110761694,2011.000000864237,1487.1610353141025,4466.087293313707,169.19518102244595,11818.48093811491,-57.053547971153066,-24.15347054799625,-21.332244950916802
7.680941,5.389451195661231,-406.7113044550838,1849.0000001299943,-6.557877162646138,1066.793571149212,2011.0000008636287,1487.3862997097297,4537.752194985958,179.02002842404582,11862.828576028236,-56.00428254699922,-22.703022836341187,-21.659854180694406
7.681942,5.389106140189936,-405.16058995941887,1849.0000001299015,-6.436704635476603,1067.944028105306,2011.0000008630984,1487.6126145360386,4607.533893034478,188.9459895640297,11902.843595191725,-54.96576967411566,-21.20483053141195,-22.006335878355312
7.682946,5.388761648605236,-403.59194781836726,1849.0000001298797,-6.314542798282525,1069.1037377090468,2011.0000008626437,1487.8398318663956,4675.312237367244,198.9665989009427,11938.466877499035,-53.93894490652312,-19.65947075334993,-22.371560280536407
7.683949,5.388417726359753,-402.0064254317673,1849.0000001299315,-6.1914760315541875,1070.2719557851856,2011.0000008622608,1488.0678046138446,4740.969598540396,209.07467544851272,11969.645577794101,-52.92459814378865,-18.067674597541156,-22.75535859567226
7.684949,5.388074378883451,-400.4050742093489,1849.0000001300607,-6.067588624589698,1071.44793859825,2011.000000861947,1488.2963866648813,4804.39113177579,219.26225347972976,11996.333278162972,-51.923376752986684,-16.430332744110117,-23.157522276674143
7.685948,5.387731611583395,-398.78894855874705,1849.000000130269,-5.94296469219786,1072.6309435404405,2011.0000008617005,1488.5254330102323,4865.465033659551,229.52051852746564,12018.490115413986,-50.93578941547587,-14.74850033279281,-23.57780242978476
7.686952,5.387389429843532,-397.1591048781896,1849.000000130559,-5.817688092748799,1073.8202298124645,2011.0000008615195,1488.754799872505,4924.082791079129,239.8397495017392,12036.082879358792,-49.96221063680721,-13.023401034082188,-24.015909364258963
7.687951,5.387047839024451,-395.5166005551539,1849.000000130933,-5.691842347669311,1075.0150590964554,2011.0000008614031,1488.9843448305887,4980.139421993603,250.20926767136416,12049.085079752851,-49.00288585920055,-11.256430256484123,-24.471512286056516
7.688955,5.386706844463153,-393.8624929722668,1849.0000001313922,-5.565510562474173,1076.214696220159,2011.0000008613513,1489.2139269406905,5033.533707663931,260.6173931781665,12057.476980070714,-48.05793711800419,-9.449157439337572,-24.944239137696123
7.689955,5.3863664514728296,-392.19783852170394,1849.0000001319388,-5.438775349418986,1077.4184098115857,2011.000000861363,1489.4434068539003,5084.168415996168,271.0514096671618,12061.245596673303,-47.12736918612499,-7.603327390911389,-25.43367658589516
7.690958,5.386026665342633,-390.52369162931893,1849.0000001325736,-5.311718751854627,1078.6254729433558,2011.0000008614377,1489.6726469301937,5131.950515671207,281.4975375281558,12060.384662364158,-46.211076153236334,-5.720860642391665,-25.9393701585972
7.691959,5.385687491337447,-388.8411037897066,1849.0000001332967,-5.184422170357958,1079.8351637659973,2011.000000861574,1489.9015113487796,5176.791380749076,291.9409161552539,12054.89455381979,-45.308848389693786,-3.803852799895857,-26.460824533398423
7.692963,5.3853489346976655,-387.151122613373,1849.000000134107,-5.05696629070817,1081.0467661294679,2011.0000008617715,1490.129866214721,5218.606985444718,302.3655955424979,12044.78218290475,-44.4203798488906,-1.854572888622664,-26.99750398009852
7.693959,5.3850110006389675,-385.45479088715337,1849.0000001350038,-4.929431013772982,1082.259570192203,2011.0000008620298,1490.3575796617513,5257.31808877606,312.75453744747557,12030.060852432493,-43.54527566627268,0.12453930474736566,-27.54883296094625
7.694962,5.384673694352095,-383.7531456489867,1849.000000135986,-4.8018953873638495,1083.4728730170118,2011.000000862348,1490.5845219512278,5292.850408785009,323.08962627085737,12010.750077495522,-42.68306001803512,2.13087687382812,-28.114196892882834
7.695961,5.38433702100263,-382.0472172781197,1849.0000001370538,-4.674437540114427,1084.68597915317,2011.0000008627264,1490.8105655671661,5325.134786028847,333.35168971856046,11986.87537404866,-41.83318420717511,4.1616703905803565,-28.692943076474773
7.696964,5.384000985730777,-380.33802860177843,1849.000000138207,-4.547134617431741,1085.8982012040894,2011.000000863164,1491.0355853073056,5354.1073360347345,343.5205292345632,11958.46801697364,-40.99503494845366,6.21399342298914,-29.284381796188327
7.697965,5.383665593651143,-378.6265940193071,1849.0000001394467,-4.4200627195648154,1087.1088603799762,2011.0000008636605,1491.2594583701668,5379.70959040511,353.5749601161994,11925.56477036717,-40.16794282642259,8.284768928845557,-29.887787596205207
7.698968,5.383330849852515,-376.91391864473576,1849.0000001407745,-4.293296841830971,1088.3172870349144,2011.0000008642153,1491.4820644380686,5401.888626258179,363.4928611500446,11888.207593264611,-39.351190901985106,10.370776477329777,-30.50240073506303
7.699966,5.382996759397653,-375.20099746869676,1849.0000001421915,-4.166910817035561,1089.522821187854,2011.0000008648274,1491.7032857560782,5420.597183686823,373.25123353536867,11846.443324424537,-38.54402344315587,12.46866024745737,-31.127428820921395
7.700969,5.382663327323069,-373.48881454056806,1849.0000001436977,-4.040977260116594,1090.7248130270057,2011.0000008654958,1491.9230072068726,5435.793770922511,382.8262687937606,11800.323350144237,-37.74565475489919,14.574937751838595,-31.762048627121548
7.701975,5.3823305586388175,-371.7783421716794,1849.000000145293,-3.9155675150414817,1091.9226233971738,2011.000000866219,1492.141116381499,5447.442756899485,392.19342529814446,11749.903259343271,-36.95527808127185,16.686009235447855,-32.40540808492952
7.702972,5.381998458328284,-370.0705401603736,1849.0000001469773,-3.7907516039791,1093.1156242695945,2011.0000008669956,1492.3575036460275,5455.514450929837,401.32751299214806,11695.242490333665,-36.172074550545126,18.798167702053465,-33.0566284471302
7.703971,5.381667031347975,-368.3663550396716,1849.0000001487508,-3.666598178766368,1094.3031991938685,2011.0000008678242,1492.5720622040944,5459.985169222715,410.2027858117892,11636.403973786148,-35.39522213046203,20.907609525262767,-33.71480661281561
7.704973,5.381336282627304,-366.66671934824734,1849.0000001506135,-3.543174474684737,1095.4847437316084,2011.0000008687027,1492.7846881553373,5460.837288011052,418.7930412659772,11573.453776399256,-34.62390455655705,23.010445606107048,-34.37901760054517
7.705975,5.38100621706838,-364.9725509253736,1849.0000001525661,-3.420546266558242,1096.6596658714545,2011.0000008696295,1492.995280549738,5458.05928308639,427.0717265809765,11506.460749682046,-33.85732019189026,25.10271304380288,-35.04831715417646
7.706977,5.380676839545813,-363.2847522304554,1849.0000001546089,-3.298777827181181,1097.827386425151,2011.0000008706027,1493.203741437886,5451.645755585823,435.01205076763813,11435.496188074296,-33.09469077182738,27.18038728987832,-35.72174446315644
7.707977,5.380348154906499,-361.60420968772553,1849.0000001567416,-3.1779318880799994,1098.9873394044025,2011.0000008716213,1493.4099759171795,5441.597443923643,442.5871019296396,11360.633500355345,-32.33526998293406,29.23939475778198,-36.398324976977754
7.708981,5.380020167969426,-359.9317930566282,1849.0000001589635,-3.058069602610602,1100.1389723782665,2011.0000008726845,1493.6138921739919,5427.921221812626,449.7699690963938,11281.947897941738,-31.578351821080776,31.275625860661126,-37.0770732918877
7.709981,5.379692883525467,-358.268354828372,1849.0000001612736,-2.9392505113890466,1101.2817468108733,2011.0000008737914,1493.8154015218345,5410.630082374527,456.53386783515447,11199.516103254504,-30.82327867072354,33.284948449909564,-37.7569960869022
7.710988,5.379366306337185,-356.6147296490898,1849.000000163672,-2.8215325100504645,1102.4151383792912,2011.0000008749419,1494.0144184355509,5389.743108394554,462.8522688721295,11113.416080861058,-30.069449045011588,35.26322162692321,-38.43709508583863
7.711985,5.3790404411386294,-354.97173376999297,1849.0000001661585,-2.704971819328015,1103.5386372713915,2011.0000008761351,1494.2108605815815,5365.285428828873,468.69902893121963,11023.72679357794,-29.316324924688235,37.20630990032761,-39.11637002244927
7.712985,5.378715292635144,-353.34016452486657,1849.0000001687324,-2.5896229574407843,1104.6517484635933,2011.0000008773702,1494.404648844341,5337.288161726254,474.0485229809753,10930.527985173223,-28.563438632613376,39.11009766030539,-39.793821586692
7.713987,5.378390865503169,-351.7207998352042,1849.0000001713918,-2.4755387147767554,1105.7539919784012,2011.0000008786453,1494.5957073487546,5305.788343773838,478.87577706583346,10833.89999074637,-27.810399180413818,40.97050393990515,-40.46845433155767
7.71499,5.378067164390036,-350.1143977432377,1849.0000001741348,-2.362770130854276,1106.8449031216837,2011.0000008799568,1494.783963479009,5270.828846721896,483.1566008872899,10733.923575303232,-27.05689802464273,42.78349742997435,-41.13927952159267
7.715989,5.377744193913775,-348.52169597307085,1849.0000001769588,-2.251366473542904,1107.9240326996685,2011.000000881302,1494.9693478935665,5232.45828098276,486.8677192950138,10630.679800499356,-26.30271417218497,44.5451117097394,-41.80531790625089
7.716991,5.3774219586629215,-346.9434115200836,1849.000000179861,-2.141375220522029,1108.9909472156685,2011.000000882679,1495.1517945365056,5190.730886734112,489.9869018473893,10524.249919009084,-25.547718578643604,46.2514606495047,-42.46560240334206
7.717993,5.377100463196335,-345.3802402687276,1849.0000001828387,-2.032842042953336,1110.0452290465828,2011.000000884085,1495.3312406452433,5145.706412886034,492.49308960568106,10414.715295503547,-24.791877788849924,47.898753935889694,-43.119180679978776
7.718995,5.376779712043002,-343.83285663878974,1849.0000001858891,-1.9258107913409213,1111.0864765992499,2011.0000008855175,1495.5076267547097,5097.449984294302,494.3665183358935,10302.15735279766,-24.035256774958714,49.48331266363048,-43.76511762054608
7.719999,5.376459709701853,-342.30191326015535,1849.0000001890096,-1.820323483550735,1112.1143044467603,2011.0000008869736,1495.6808966980393,5046.031957619447,495.5888373073577,10186.657541362907,-23.278020934691273,51.00158493122124,-44.402497673320944
7.720997,5.376140460641577,-340.7880406760612,1849.0000001921965,-1.7164202949589842,1113.128343444866,2011.0000008884497,1495.8509976038488,4991.527766242675,496.1432228971932,10068.297330105093,-22.520437220318946,52.45016137059621,-45.03042706936739
7.721997,5.375821969300436,-339.29184707478385,1849.000000195446,-1.6141395506972103,1114.1282408286459,2011.0000008899422,1496.017879890174,4934.017754656767,496.01448623526534,9947.158216078033,-21.762874377995505,53.82579053377509,-45.64803590908397
7.722999,5.375504240086083,-337.8139180496675,1849.0000001987548,-1.5135177199599155,1115.1136602896265,2011.0000008914483,1496.181497255141,4873.587002753741,495.1891741554358,9823.321750647345,-21.005802287035017,55.12539405204471,-46.25448011315435
7.723998,5.37518727737538,-336.3548163873535,1849.000000202119,-1.414589412338886,1116.084282033573,2011.0000008929653,1496.3418066644474,4810.32514043281,493.65566275599207,9696.869579532548,-20.24979039931657,56.34608147601831,-46.848943235623366
7.725002,5.3748710855142185,-334.91508188403367,1849.0000002055351,-1.3173873761467287,1117.0398028191935,2011.0000008944896,1496.4987683357358,4744.326152952974,491.40424291514216,9567.883494138114,-19.495505289436174,57.4851646980878,-47.430638137487776
7.726003,5.374555668817346,-333.4952311895112,1849.0000002089985,-1.221942498690605,1117.9799359780318,2011.0000008960167,1496.6523457199366,4675.688177455598,488.4271971560798,9436.445491630617,-18.743707336199787,58.54017185268268,-47.99880851966084
7.727005,5.374241031568191,-332.0957576788139,1849.0000002125037,-1.1282838084557025,1118.904411415833,2011.0000008975428,1496.8025054796656,4604.513291083924,484.71886730985665,9302.637841323136,-17.995246565591707,59.50886058464626,-48.55273031453602
7.728005,5.373927178018683,-330.7171313510703,1849.0000002160452,-1.0364384791566477,1119.8129755957032,2011.0000008990653,1496.9492174647598,4530.907291129182,480.2757124825435,9166.543155081516,-17.25105769421041,60.38923057215274,-49.09171293578514
7.729011,5.37361411238908,-329.35979875531984,1849.0000002196186,-0.9464318356138007,1120.705391503397,2011.0000009005814,1497.0924546850383,4454.979467637102,475.09635689536105,9028.244459660704,-16.512154420206997,61.17953518815571,-49.61510038664469
7.730008,5.373301838867804,-328.02418294290004,1849.0000002232193,-0.8582873614102208,1121.581438595092,2011.0000009020894,1497.2321932803725,4376.842368914656,469.18162723224054,8887.825269103083,-15.77962301615902,61.8782921837358,-50.12227222789942
7.73101,5.372990361611264,-326.7106834460165,1849.0000002268428,-0.772026708284011,1122.4409127280271,2011.0000009035873,1497.368412488155,4296.611560385339,462.534579198554,8745.369655574024,-15.05461528486828,62.48429327825632,-50.612644408133825
7.73201,5.372679684743692,-325.4196762820737,1849.0000002304853,-0.6876697072097709,1123.2836260744016,2011.0000009050743,1497.5010946082593,4214.405377252594,455.16051306774875,8600.962317262765,-14.33834094438201,62.996612544977154,-51.085669960515155
7.733011,5.372369812356978,-324.1515139833127,1849.0000002341433,-0.6052343811219795,1124.1094070189504,2011.0000009065495,1497.630224965575,4130.344671445435,447.0669780695743,8454.688642229437,-13.63205951252709,63.414613486311254,-51.54083957222262
7.734012,5.372060748510504,-322.90652565127533,1849.0000002378122,-0.5247369592323186,1124.9181000406197,2011.000000908012,1497.7557918702123,4044.5525533378363,438.2637655542969,8306.63476732319,-12.937071763942606,63.73795469961553,-51.977682034591425
7.735015,5.371752497230982,-321.6850170355844,1849.0000002414874,-0.4461918928922104,1125.7095655787916,2011.00000090946,1497.877786575467,3957.1541287540504,428.76289095065647,8156.88763152431,-12.254710834068495,63.96659404199515,-52.39576458414736
7.736014,5.371445062512297,-320.48727063650864,1849.0000002451645,-0.3696118729511871,1126.4836798845106,2011.0000009108924,1497.9962032336387,3868.276231795814,418.5785646194346,8005.535023269269,-11.586333045086347,64.10079121143927,-52.794693146877265
7.737017,5.371138448315344,-319.3135458307537,1849.0000002488398,-0.29500784856113577,1127.2403348571897,2011.0000009123085,1498.1110388497905,3778.0471540551953,407.7271517871594,7852.665621497189,-10.933308528623243,64.14110867238799,-53.174112499971976
7.738023,5.37083265856787,-318.1640790198987,1849.0000002525096,-0.2223890473759616,1127.9794378672746,2011.0000009137063,1498.22229323355,3686.596370809284,396.22712182379064,7698.369030306504,-10.29701171913885,64.08841086689455,-53.533706366398775
7.73902,5.370527697164317,-317.0390838008777,1849.0000002561685,-0.15176299709578459,1128.7009115653625,2011.0000009150842,1498.3299689490332,3594.0542648305486,384.0989872028774,7542.735807230646,-9.678811790278957,63.94386166773683,-53.873197457602224
7.740019,5.370223567965672,-315.93875115788546,1849.000000259812,-0.08313554830443516,1129.404693678285,2011.0000009164403,1498.4340712629921,3500.5518484889303,371.3652325517458,7385.857485231463,-9.080063103899498,63.70892004684536,-54.19234747831464
7.741023,5.369920274799308,-314.86324967506795,1849.0000002634345,-0.01651089854873044,1130.090736792666,2011.0000009177718,1498.53460809128,3406.220484867328,358.0502342619371,7227.8265885702185,-8.502095737757426,63.38533395106331,-54.49095710514651
7.742024,5.369617821458839,-313.8127257693414,1849.0000002670306,0.048108382392200104,1130.7590081264852,2011.000000919075,1498.6315899437168,3311.191608659239,344.18017118555053,7068.736642750345,-7.94620615319309,62.97513239737789,-54.768865947751586
7.743026,5.3693162117039615,-312.78730394266785,1849.000000270595,0.11072132609941622,1131.4094892891817,2011.0000009203466,1498.7250298674578,3215.5964476643308,329.78292699065236,6908.682178736105,-7.413648058980207,62.48061582089594,-55.025952498324244
7.744026,5.369015449260319,-311.7870870530993,1849.000000274122,0.17132853802045367,1132.042176030837,2011.0000009215826,1498.8149433889505,3119.56574574306,314.88798478818717,6747.758731639894,-6.905623522527984,61.90434473004482,-55.26213407222631
7.745028,5.368715537819347,-310.8121566038883,1849.0000002776071,0.22993216894137164,1132.6570779809933,2011.0000009227804,1498.9013484545703,3023.2294881334656,299.526314674116,6586.062834041619,-6.4232743752749375,61.249126743732305,-55.47736673972585
7.746029,5.368416481038135,-309.8625730499504,1849.000000281046,0.28653588547649217,1133.2542183776595,2011.0000009239382,1498.9842653700302,2926.716630070089,283.73025485453115,6423.692004060406,-5.967673955461488,60.51800210395046,-55.67164524616259
7.747036,5.368118282539285,-308.9383761209513,1849.0000002844338,0.34114483962766023,1133.8336337870724,2011.000000925055,1499.06371673865,2830.1548296744163,267.53338703930206,6260.744728245677,-5.539819228308829,59.7142277746371,-55.84500291531681
7.748032,5.367820945910769,-308.0395851602803,1849.0000002877662,0.393765637464692,1134.3953738147807,2011.00000092613,1499.1397273985756,2733.6701861063552,250.97040680257663,6097.320439295272,-5.1406233208475145,58.84126025379752,-55.9975115283445
7.749035,5.3675244747058,-307.1661994791611,1849.0000002910385,0.4444063069784623,1134.9395008086246,2011.0000009271623,1499.2123243590331,2637.3869839753866,234.0769896173871,5933.519488546334,-4.77090850620259,57.90273724082961,-56.12928116840312
7.750036,5.367228872442692,-306.31819872514376,1849.0000002942463,0.4930762651578126,1135.4660895541838,2011.000000928151,1499.2815367357118,2541.4274450069784,216.88965327769515,5769.443113123475,-4.431399670107326,56.902458313982656,-56.24046001917367
7.751038,5.366934142604721,-305.495543264213,1849.000000297385,0.5397862843411387,1135.9752269632647,2011.000000929095,1499.347395685355,2445.9114879440835,199.44561742510757,5605.193397572088,-4.122718290787447,55.84436478294217,-56.331234104121755
7.752039,5.366640288639997,-304.698174575744,1849.00000030045,0.5845484578931447,1136.4670117559945,2011.0000009299936,1499.4099343396474,2350.956497634958,181.78266089941272,5440.8732297556635,-3.845376961751373,54.732518887937395,-56.40182695280717
7.75304,5.366347313961332,-303.9260156595343,1849.0000003034377,0.6273761652568299,1136.9415541370734,2011.0000009308458,1499.4691877384835,2256.677104217745,163.93897763189597,5276.586250757797,-3.599774484802351,53.571082519304845,-56.45249918103441
7.754043,5.36605522194611,-303.178971454139,1849.0000003063453,0.6682840364303106,1137.3989754667437,2011.0000009316516,1499.5251927627003,2163.184973260274,145.9530317977712,5112.436798504226,-3.3861915574895547,52.3642956303897,-56.48354797309625
7.755044,5.365764015936162,-302.4569292657398,1849.0000003091702,0.707287915917565,1137.8394079270115,2011.000000932411,1499.5779880663517,2070.5886076514894,127.86341293868745,4948.529844809023,-3.204787075668136,51.11645451259871,-56.49530645653776
7.756049,5.3654736992376435,-301.75975920678064,1849.0000003119096,0.7444048262016393,1138.2629941836556,2011.000000933125,1499.6276140086086,1978.9931619697384,109.70869175789099,4784.970925552344,-3.0555950685793283,49.83189009507854,-56.48814296243427
7.757047,5.36518427512091,-301.08731464361017,1849.0000003145626,0.7796529307882576,1138.6698870445448,2011.0000009337944,1499.6741125853607,1888.5002699730633,91.52727727913313,4621.8660637149,-2.938522281277132,48.51494642371555,-56.46246016688419
7.758047,5.364895746820401,-300.4394326523768,1849.0000003171274,0.8130514968671456,1139.0602491147806,2011.00000093442,1499.7175273605988,1799.2078857675906,73.357276045914,4459.321685025875,-2.853346417152171,47.16995946571083,-56.418694112049636
7.759049,5.364608117534518,-299.8159344824322,1849.000000319604,0.8446208576377078,1139.4342524491633,2011.000000935004,1499.7579033976538,1711.2101391120427,55.2363540205531,4297.444526025292,-2.7997150512867663,45.80123637746388,-56.35731310739675
7.76005,5.3643213904255065,-299.216626026508,1849.0000003219914,0.8743823743449952,1139.79207820248,2011.0000009355479,1499.7952871903656,1624.5972052101984,37.20160182361414,4136.341534397255,-2.7771452229955074,44.41303536520057,-56.278816513615446
7.761052,5.364035568619343,-298.64129829694156,1849.0000003242887,0.9023583980711614,1140.1339162780907,2011.0000009360535,1499.8297265942556,1539.4551892309046,19.289403934251226,3976.1197614949974,-2.7850237129893087,43.00954625970281,-56.18373341297776
7.762054,5.36375065520562,-298.0897279072391,1849.000000326496,0.928572231326829,1140.4599649752834,2011.0000009365228,1499.861270757773,1455.8660256801852,1.535312451774256,3816.886247050109,-2.8226080072412167,41.59487191845958,-56.0726211707116
7.763057,5.363466653237433,-297.56167755827556,1849.0000003286152,0.9530480894859977,1140.770430635858,2011.0000009369567,1499.8899700536824,1373.9073926354974,-16.02607400156105,3658.7478961347474,-2.889027945968879,40.17301056038886,-55.946063892524045
7.764055,5.363183565731273,-297.05689652844546,1849.0000003306488,0.9758110621072903,1141.0655272903828,2011.000000937356,1499.9158760106632,1293.6526407412982,-33.36122567700455,3501.81134852553,-2.983288052239733,38.74783912988804,-55.80467078391076
7.765063,5.36290139566692,-296.57512116709125,1849.0000003325997,0.9968870741834782,1141.3454763045563,2011.0000009377216,1499.9390412451862,1215.170736760001,-50.43779085655561,3346.1828406997706,-3.1042705305898304,37.3230977783186,-55.649074417406176
7.766059,5.36262014598734,-296.11607539055,1849.0000003344715,1.016302847360352,1141.6105060260993,2011.0000009380535,1499.959519393732,1138.5262213747958,-67.22469825476524,3191.968060777617,-3.250738921826099,35.90237554203779,-55.479928914383855
7.767061,5.362339819598584,-295.67947118017463,1849.0000003362668,1.0340858611650927,1141.8608514325806,2011.000000938351,1499.9773650454113,1063.7791808520262,-83.69225217268027,3039.27199680638,-3.421342396031356,34.48909728666784,-55.297908048297096
7.768061,5.362060419369682,-295.2650090817008,1849.0000003379876,1.0502643142833832,1142.0967537805727,2011.0000009386138,1499.9926336750477,990.9852320920941,-99.8122199373497,2888.1987788650636,-3.6146206618855565,33.086511977463005,-55.10370327637162
7.769064,5.361781948132545,-294.87237870534665,1849.0000003396347,1.0648670859235456,1142.318460256514,2011.000000938842,1500.0053815767874,920.1955205300604,-115.5579111885395,2738.851515547274,-3.829009466860417,31.697682325490913,-54.89802170687366
7.770064,5.361504408681868,-294.50125922605037,1849.000000341209,1.0779236973050335,1142.5262236296453,2011.0000009390349,1500.015665798283,851.4567302904662,-130.90424860526755,2591.3321254590282,-4.062846659691396,30.325475848863615,-54.68158400934637
7.771065,5.3612278037750345,-294.1513198832665,1849.0000003427115,1.0894642733076223,1142.7203019073693,2011.0000009391922,1500.0235440755134,784.8111059548472,-145.82782969884812,2445.741164444602,-4.314378783802881,28.972557377198097,-54.45512227569459
7.772067,5.360952136132025,-293.82222047976103,1849.000000344142,1.0995195043166517,1142.9009579933681,2011.000000939315,1500.0290747682925,720.2964852639436,-160.30697933677834,2302.177649328393,-4.5817681680775175,27.64138301551648,-54.21937784061369
7.773069,5.360677408435322,-293.5136118788623,1849.000000345501,1.108120608298657,1143.0684593487972,2011.000000939406,1500.032316796514,657.9463420485163,-174.32179270357594,2160.7388790337327,-4.863100479534779,26.334195570760844,-53.975099070448124
7.774074,5.360403623329824,-293.2251364996444,1849.0000003467878,1.1152992931407106,1143.2230776568588,2011.0000009394678,1500.0333295771866,597.7898386619694,-187.8541684512846,2021.520254009916,-5.156392701117151,25.053021430249345,-53.72303913003422
7.775071,5.360130783422755,-292.95642880953704,1849.000000348002,1.1210877192857585,1143.365088491044,2011.0000009395033,1500.032172962303,539.8518871737665,-200.88783184458572,1884.615094965104,-5.459601496969348,23.799668867310473,-53.463953737469936
7.77607,5.359858891283581,-292.7071158138769,1849.0000003491416,1.1255184626951928,1143.4947709873136,2011.0000009395142,1500.028907177589,484.15321857426665,-213.4083477641412,1750.1144619635222,-5.770631927533653,22.575727735607433,-53.19859891721654
7.777072,5.359587949443929,-292.4768175419332,1849.0000003502048,1.1286244781688581,1143.612407520475,2011.0000009395033,1500.023592762176,430.7104592387617,-225.40312349775957,1618.1069749987157,-6.087346477470421,21.382570500746304,-52.92772876261502
7.778073,5.359317960397502,-292.26514752896065,1849.0000003511907,1.1304390630516206,1143.7182833849909,2011.0000009394732,1500.0162905092425,379.5362139011574,-236.8614013228234,1488.678637199139,-6.407574360413961,20.221354545872746,-52.652093219778656
7.779075,5.359048926599998,-292.0717132938532,1849.0000003520993,1.130995821354573,1143.8126864804449,2011.000000939426,1500.007061407656,330.6391543959797,-247.77424096532573,1361.9126618572868,-6.729121065255589,19.093025677107768,-52.37243590574415
7.780076,5.358780850469039,-291.89611681199153,1849.0000003529306,1.1303286283178824,1143.8959070018689,2011.0000009393632,1499.9959665846613,284.0241134410642,-258.13449211051113,1237.8893044986175,-7.049778108633456,17.9983227447427,-52.0894919745259
7.781076,5.3585137343840925,-291.7379549828987,1849.0000003536854,1.12847159544121,1143.968237135122,2011.0000009392868,1499.983067249645,239.69218275188243,-267.9367572367259,1116.685701221675,-7.3673329575741135,16.93778328723154,-51.803986045138764
7.782077,5.358247580686405,-291.5968200923378,1849.0000003543657,1.1254590360065666,1144.0299707574939,2011.0000009391977,1499.9684246390138,197.64081480126492,-277.17734514644997,998.3757145454899,-7.679579084798328,15.911750097900677,-51.51663020555351
7.783083,5.357982391678923,-291.472300268506,1849.0000003549715,1.1213254311173946,1144.0814031436855,2011.0000009390958,1499.9520999622173,157.8639275647421,-285.8542156748861,883.0297879928975,-7.984326117146414,14.920378610220164,-51.228122105723955
7.784079,5.357718169626222,-291.36397993200274,1849.0000003555017,1.1161053962765892,1144.1228306773105,2011.0000009389803,1499.9341543489443,120.35201162177559,-293.9669161644299,770.7148106157817,-8.279410035247597,13.963644997764707,-50.93914315112362
7.785082,5.357454916754443,-291.27144023926826,1849.0000003559555,1.1098336485251081,1144.1545505680374,2011.0000009388502,1499.9146487975252,85.09223901725497,-301.51651039947484,661.4939926264608,-8.562703380509967,13.041354890123428,-50.65035680574529
7.786082,5.357192635251224,-291.1942595192103,1849.000000356332,1.1025449741617475,1144.176860574484,2011.0000009387047,1499.893644124559,52.06857332642277,-308.5055007962662,555.426753234457,-8.832125424178477,12.15315261503122,-50.3624070106342
7.787084,5.35693132726564,-291.1320137027579,1849.0000003566304,1.0942741970636016,1144.1900587329646,2011.0000009385437,1499.8712009157962,21.2618804102025,-314.93774473264233,452.56862169711786,-9.085652252599052,11.298530887741594,-50.07591672121169
7.788085,5.356670994908142,-291.0842767451001,1849.0000003568496,1.0850561476256608,1144.1944430921842,2011.0000009383682,1499.847379478299,-7.349960603479368,-320.8183659784759,352.97115247555655,-9.321326722443061,10.476840878695196,-49.79148656421629
7.789087,5.3564116402504975,-291.0506210403852,1849.0000003569887,1.0749256323369505,1144.1903114539657,2011.000000938179,1499.8222397938957,-33.79194652413684,-326.1536622460153,256.6818552463153,-9.537268238857184,9.687302597950024,-49.509693613187295
7.790089,5.356153265325736,-291.03061782867275,1849.000000357046,1.0639174040095698,1144.177961120092,2011.000000937978,1499.7958414739542,-58.09183984523399,-330.95100991749706,163.7441403580781,-9.731682308005382,8.929015538727697,-49.231090280136705
7.791091,5.355895872128093,-291.02383759494694,1849.0000003570206,1.052066132675951,1144.157688645338,2011.000000937767,1499.7682437154865,-80.28005933244333,-335.21876702388965,74.19728014666089,-9.902869813523827,8.200969522963032,-48.95620332051815
7.792097,5.355639462612948,-291.029850460011,1849.0000003569114,1.0394063771686297,1144.1297895967605,2011.0000009375478,1499.739505258602,-100.38957169751522,-338.96617554349945,-11.923613664783659,-10.04923596472647,7.502055689845041,-48.6855329488666
7.793093,5.355384038696785,-291.0482265630975,1849.0000003567186,1.0259725573957945,1144.094558319311,2011.0000009373223,1499.7096843453246,-118.45578454847781,-342.2032640642149,-94.58759644580218,-10.169298863645441,6.831077565166615,-48.41955206345748
7.794093,5.355129602257135,-291.07853643603966,1849.0000003564412,1.0117989273248795,1144.0522877078304,2011.0000009370922,1499.6788386797823,-134.5164407576765,-344.9407518116223,-173.76788117943877,-10.261697638406787,6.186762145811045,-48.15870557972639
7.795098,5.354876155132528,-291.1203513688609,1849.0000003560792,0.9969195486854604,1144.0032689854725,2011.0000009368603,1499.6470253897846,-148.61151434420336,-347.18995499104875,-249.4418133787651,-10.32520009191974,5.567770930565066,-47.903409873540795
7.796098,5.354623699122453,-291.17324376664936,1849.0000003556318,0.9813682654017336,1143.947791488608,2011.0000009366292,1499.6143009897921,-160.78310792604603,-348.9626963285091,-321.59083094406503,-10.358709817135324,4.972710826189984,-47.654052336248775
7.797099,5.35437223598731,-291.2367874975959,1849.0000003550979,0.9651786787638803,1143.8861424582456,2011.0000009364019,1499.5807213452879,-171.07535175885835,-350.27121862631395,-390.2004096861476,-10.361272732876417,4.400144856677174,-47.41099104349392
7.798099,5.354121767448371,-291.31055823208214,1849.0000003544758,0.9483841233466593,1143.8186068380064,2011.0000009361809,1499.5463416385548,-179.53430434172742,-351.12810307534886,-455.2599954066537,-10.332082997133906,3.8486026039936303,-47.17455453916126
7.799104,5.35387229518774,-291.39413377271575,1849.0000003537627,0.9310176436826267,1143.745467078679,2011.000000935969,1499.5112163358651,-186.2078545351954,-351.5461929885502,-516.7629235705471,-10.27048825756278,3.3165903103837255,-46.94504173475664
7.800103,5.353623820848316,-291.48709437521944,1849.000000352956,0.9131119716964483,1143.6670029493787,2011.000000935768,1499.475399156078,-191.14562510309787,-351.5385235394249,-574.7063277240178,-10.175994201690989,2.8026005754463337,-46.72272192318741
7.80111,5.353376346033758,-291.5890230600888,1849.0000003520538,0.8946995049058553,1143.58349135533,2011.0000009355797,1499.4389430406568,-194.39887755782897,-351.11825800628617,-629.0910378988387,-10.04826837222852,2.3051215857198972,-46.507834904365005
7.802107,5.353129872308449,-291.69950591494364,1849.0000003510543,0.8758122853938934,1143.4952061622823,2011.000000935405,1499.4019001250945,-196.02041815889942,-350.29863093814953,-679.9214702994102,-9.88714321617421,1.8226458201578646,-46.30059121834529
7.80311,5.3528844011974615,-291.8181323875072,1849.0000003499565,0.8564819795562337,1143.4024180275676,2011.000000935245,1499.3643217117537,-196.06450488766737,-349.09289857287934,-727.2055095903111,-9.692618340658077,1.3536781813283763,-46.101172479919434
7.804109,5.352639934186534,-291.944495569155,1849.0000003487587,0.8367398586264447,1143.3053942377974,2011.0000009351013,1499.326258244112,-194.58675519745233,-347.51429675285925,-770.9543850903291,-9.464861953899193,0.8967435092047975,-45.909731806758145
7.805112,5.3523964727220426,-292.07819246898595,1849.0000003474581,0.8166167799812772,1143.2043985531998,2011.000000934974,1499.2877592824125,-191.6440543183344,-345.57600649838685,-811.1825421347058,-9.204211476097031,0.450393441963676,-45.72639433154602
7.806113,5.352154018210967,-292.2188242783765,1849.0000003460539,0.7961431692271839,1143.0996910585839,2011.000000934863,1499.2488734807114,-187.29446388004743,-343.29112731404337,-847.9075097923463,-8.911173312097587,0.01321259628745314,-45.55125778718453
7.807116,5.351912572020874,-292.3659966259864,1849.000000344546,0.7753490030684798,1142.9915280209173,2011.0000009347675,1499.209648565313,-181.59713060464077,-340.67265821819495,-881.1497660211521,-8.586421784899349,-0.4161759517425102,-45.38439315318585
7.808116,5.351672135479895,-292.51931982319434,1849.0000003429334,0.7542637929567572,1142.8801617534991,2011.0000009346847,1499.1701313145877,-174.61219481316405,-337.7334864003366,-910.9326012150705,-8.230797236162603,-0.8391058952639501,-45.22584535084514
7.809118,5.351432709876704,-292.6784090999499,1849.0000003412154,0.7329165695203936,1142.7658404867036,2011.000000934612,1499.13036754016,-166.40069848769937,-334.48638332520443,-937.2819809441885,-7.845303306681135,-1.2568636364157597,-45.07563397469172
7.810123,5.351194296460502,-292.84288483103626,1849.0000003393927,0.7113358677722361,1142.6488082452638,2011.0000009345474,1499.0904020694572,-157.02449263177172,-330.9440080167768,-960.2264085183399,-7.431103416167319,-1.6706849314417391,-44.933754048173434
7.811121,5.350956896440996,-293.0123727527463,1849.0000003374664,0.6895497130928095,1142.529304732061,2011.0000009344892,1499.0502787296064,-146.5461436785495,-327.11891717006887,-979.7967878203868,-6.989516467586524,-2.0817522289948496,-44.80017679260843
7.812121,5.3507205109883875,-293.1865041699834,1849.0000003354382,0.6675856079856783,1142.4075652183856,2011.0000009344355,1499.010040332666,-135.0288387071763,-323.02358165480763,-996.026286663973,-6.522011806657114,-2.491192684336402,-44.674850400123894
7.813122,5.3504851412333645,-293.36491615380606,1849.0000003333091,0.6454705196008989,1142.2838204406196,2011.0000009343855,1498.9697286621772,-122.53628924272907,-318.67040889356974,-1008.9502007395494,-6.030203472074587,-2.9000768277001083,-44.557700803492125
7.814123,5.3502507882670916,-293.54725172944194,1849.0000003310809,0.62323086802182,1142.1582965032997,2011.0000009343373,1498.9293844610186,-109.13263343416953,-314.0717705188131,-1018.6058180298222,-5.515843776549338,-3.309417861032446,-44.44863243826952
7.815126,5.350017453141198,-293.73316005480666,1849.0000003287553,0.6008925153098413,1142.0312147885038,2011.00000093429,1498.8890474205523,-94.882336426601,-309.2400346396434,-1025.0322834091621,-4.980816262811073,-3.720171553124852,-44.34752899512701
7.816125,5.349785136867771,-293.92229658956785,1849.000000326335,0.5784807553010974,1141.9027918715083,2011.0000009342418,1498.848756171042,-79.85008876843496,-304.1876019814816,-1028.270462997596,-4.427128082060298,-4.1332366982436906,-44.25425416242022
7.817128,5.349553840419355,-294.11432325480354,1849.0000003238222,0.5560203041484288,1141.7732394426537,2011.0000009341918,1498.8085482733195,-64.10070272000259,-298.9269451014508,-1028.362807723937,-3.8569018446191974,-4.549456097401313,-44.16865236072328
7.818131,5.34932356472894,-294.3089085833112,1849.0000003212192,0.5335352916014077,1141.6427642353583,2011.0000009341381,1498.76846021169,-47.69900635713114,-293.47064983059823,-1025.3532154679667,-3.2723669936941286,-4.969618014527918,-44.09054947222787
7.819137,5.349094310689968,-294.50572786062975,1849.000000318528,0.5110492530166142,1141.5115679602063,2011.000000934079,1498.7285273880495,-30.709735390839313,-287.83145805209426,-1019.2868911007973,-2.675850753250098,-5.394458052543248,-44.019753568629454
7.82013,5.348866079156327,-294.7044632568438,1849.0000003157522,0.4885851220898131,1141.3798472450435,2011.0000009340135,1498.688784117195,-13.197422652287802,-282.02231089312767,-1010.2102037271765,-2.069768699951968,-5.824661387383308,-43.95605564143551
7.821131,5.348638870942359,-294.9048039492467,1849.0000003128955,0.46616522430114826,1141.2477935810048,2011.0000009339417,1498.6492636233027,4.773714779858151,-276.05639138793333,-998.1705404544091,-1.4566150070211017,-6.260865291952741,-43.89923033861911
7.822132,5.3484126868228685,-295.10644623594465,1849.0000003099624,0.4438112710639704,1141.1155932743927,2011.0000009338635,1498.6099980375584,23.139890804791687,-269.9471656607174,-983.2161560697042,-0.8389524050651781,-6.703661876980397,-43.84903671129563
7.823135,5.348187527533121,-295.3090936404904,1849.0000003069583,0.4215443545674254,1140.9834274043274,2011.000000933779,1498.5710183969136,41.83786784573535,-263.7084216805627,-965.3960180999252,-0.21940190191975503,-7.15360097181005,-43.80521897367445
7.824134,5.34796339376886,-295.51245700764065,1849.0000003038888,0.3993849433024677,1140.8514717860805,2011.000000933688,1498.5323546439447,60.80507665882258,-257.3543046559251,-944.7596468524027,0.39936769948048334,-7.611193065187431,-43.767507278990756
7.825136,5.347740286186312,-295.71625459033766,1849.0000003007601,0.3773528782605199,1140.7198969400076,2011.0000009335906,1498.4940356277907,79.97973832131132,-250.8993481640834,-921.3569501888824,1.0146504491926793,-8.076912224370034,-43.7356185135567
7.826138,5.347518205402202,-295.9202121280214,1849.0000002975787,0.355467369793579,1140.588868065985,2011.000000933487,1498.4560891061406,99.30098829114128,-244.35850015065148,-895.2380529618042,1.6237140312508105,-8.551198911000322,-43.70925711057738
7.827139,5.347297151993764,-296.12406291638246,1849.000000294351,0.3337469951241686,1140.4585450232594,2011.0000009333778,1498.41854174825,118.7090024054197,-237.74714298558195,-866.4531212370352,2.223810647202592,-9.034462614656231,-43.68811588500736
7.828139,5.347077126498758,-296.3275478686738,1849.0000002910822,0.3122096964931578,1140.3290823156105,2011.0000009332641,1498.3814191389617,138.14512466051937,-231.08110682445542,-835.0521816333236,2.8121879742160916,-9.527084229819511,-43.671876890503746
7.829146,5.346858129415482,-296.5304155687009,1849.000000287777,0.29087277993310917,1140.2006290817312,2011.0000009331459,1498.3447457837028,157.55199659041745,-224.37667559672482,-801.084936319578,3.386100171556571,-10.029418108646816,-43.66021229948634
7.830142,5.346640161202798,-296.7324223156185,1849.0000002844401,0.2697529146544793,1140.0733290907203,2011.000000933024,1498.3085451144257,176.87368803211658,-217.65058502552512,-764.6005744203102,3.942818910258307,-10.541793729654996,-43.65278530746773
7.831144,5.346423222280148,-296.933332160664,1849.000000281075,0.24886613303167882,1139.9473207425865,2011.0000009329003,1498.2728394964763,196.0558290370293,-210.92001217627416,-725.6475807814871,4.479644401100331,-11.06451693072762,-43.64925106312876
7.832145,5.346207313027581,-297.132916935963,1849.0000002776853,0.22822783117570372,1139.8227370736543,2011.0000009327766,1498.2376502363531,215.0457426547955,-204.20255613303928,-684.2735432382852,4.993916395693234,-11.597870663628473,-43.649257625968644
7.833146,5.345992433785783,-297.3309562755462,1849.0000002742738,0.20785277007977146,1139.6997057667668,2011.0000009326538,1498.2029975903317,233.79257828111565,-197.51620951155172,-640.5249596978291,5.483025134708405,-12.142115236703125,-43.65244695363002
7.834146,5.345778584856099,-297.52723762872216,1849.000000270844,0.18775507732413985,1139.5783491661728,2011.0000009325329,1498.1689007739296,252.24744522414997,-190.87932063431614,-594.4470464993256,5.944422216031692,-12.697488022844809,-43.65845592111401
7.835151,5.345565766500561,-297.721556265953,1849.0000002673999,0.1679482493260498,1139.4587842969847,2011.0000009324137,1498.1353779721794,270.3635461055145,-184.310546314615,-546.0835496370539,6.375631353915773,-13.264202620815402,-43.66691737403033
7.836149,5.3453539789419215,-297.9137152773848,1849.0000002639447,0.14844515412051687,1139.3411228890961,2011.0000009322964,1498.1024463506833,288.09630967265883,-177.82879532045797,-495.4765605252977,6.774258998220021,-13.842447468922565,-43.67746121774338
7.837151,5.345143222363678,-298.103525564187,1849.0000002604813,0.12925803465749808,1139.2254714054422,2011.00000093218,1498.0701220674212,305.4035225601307,-171.4531627150041,-442.6663380464814,7.138004780789292,-14.432383920172514,-43.689715543712865
7.838158,5.344933496910117,-298.2908058228583,1849.0000002570125,0.11039851260078225,1139.1119310744862,2011.0000009320636,1498.038420285277,322.2454594984968,-165.20285539526688,-387.6911386537724,7.464671754029917,-15.034143797103805,-43.703307793443
7.839156,5.344724802686343,-298.4753825226615,1849.000000253541,0.09187759261379234,1139.0005979268094,2011.0000009319463,1498.0073551852624,338.58501143206183,-159.09710927464857,-330.5870562976809,7.752176384806253,-15.647826452830389,-43.71786595931657
7.840156,5.344517139758319,-298.65708987634986,1849.0000002500694,0.07370566711734726,1138.8915628356942,2011.000000931828,1497.9769399804059,354.3878109706141,-153.15509867554385,-271.38787391433056,7.998558264905818,-16.27349537288617,-43.73301982031536
7.841157,5.344310508152906,-298.8357698043534,1849.0000002465997,0.05589252150430678,1138.7849115615695,2011.0000009317098,1497.9471869302733,369.62235456690894,-147.39583861414832,-210.12492815347832,8.20198949753732,-16.91117436058342,-43.748402209318684
7.842157,5.344104907857904,-299.0112718925932,1849.0000002431345,0.03844733979591923,1138.680724800203,2011.0000009315925,1497.9181073560987,384.26012078120937,-141.83808076876826,-146.82698894007348,8.360783717763876,-17.560843356716415,-43.76365030743333
7.843159,5.343900338822099,-299.1834533440962,1849.0000002396766,0.021378710724603227,1138.5790782345152,2011.000000931476,1497.8897116564879,398.2756839677789,-136.50020402340508,-81.52015535757218,8.473404703581608,-18.222433952229576,-43.77840695972621
7.844161,5.343696800955305,-299.3521789245843,1849.0000002362297,0.004694634227824531,1138.4800425898904,2011.0000009313615,1497.8620093236723,411.64682269668816,-131.40010056839802,-14.227769217919318,8.53847453362158,-18.8958246595055,-43.792322005788016
7.845161,5.343494294128414,-299.5173209022135,1849.0000002327981,-0.011597471662324065,1138.383683692861,2011.0000009312496,1497.8350089602795,424.3546222086535,-126.55505861790152,55.02965245442781,8.554781247315786,-19.580836013967165,-43.80505361764169
7.846162,5.343292818173439,-299.67875898164215,1849.0000002293857,-0.027490763549268975,1138.2900625330408,2011.0000009311414,1497.808718296591,436.3835701918779,-121.9816428686489,126.2344649455582,8.521285964018086,-20.277225582778687,-43.816269636495946
7.847168,5.343092372883569,-299.8363802326069,1849.000000225995,-0.04297896503727796,1138.1992353281798,2011.0000009310377,1497.78314420826,447.7216451688954,-117.69557387485716,199.37192245984485,8.4371294191131,-20.984682961670217,-43.82564889869562
7.848165,5.342892958013218,-299.9900790131878,1849.000000222629,-0.05805635874741278,1138.111253592217,2011.0000009309385,1497.758292734462,458.36039678872623,-113.71160754974534,274.43018305165737,8.301637877541237,-21.702824844195337,-43.83288254004047
7.849167,5.342694573278082,-300.1397568879458,1849.0000002192912,-0.07271777799955631,1138.026164206201,2011.000000930844,1497.734169096447,468.2950173351977,-110.04341602497227,351.4002912846484,8.11432838825389,-22.431190249716234,-43.83767526663132
7.850168,5.3424972183551915,-300.2853225411161,1849.0000002159852,-0.08695859817593234,1137.9440094919553,2011.000000930754,1497.7107777164642,477.52440378561204,-106.70347110576314,430.2761381864808,7.874913346621026,-23.16923599669168,-43.83974657976229
7.851169,5.34230089288297,-300.42669168504256,1849.0000002127128,-0.10077472778149599,1137.8648272883586,2011.0000009306684,1497.6881222370334,486.0512097845727,-103.70293155222187,511.0543982283758,7.583304335463913,-23.916332506215383,-43.83883194224044
7.85217,5.342105596461292,-300.56378696403897,1849.0000002094769,-0.1141625992165176,1137.7886510301141,2011.0000009305875,1497.6662055405286,493.8818869354951,-101.05153539697959,593.7344432149782,7.239615218967589,-24.671760017402004,-43.83468387389967
7.853172,5.341911328651544,-300.6965378538644,1849.00000020628,-0.1271191592766149,1137.7155098288802,2011.000000930511,1497.6450297690528,501.026714857155,-98.75749847650819,678.3182331186179,6.8441644670889055,-25.434705291576574,-43.82707296491132
7.854175,5.341718088976686,-300.8248805569999,1849.000000203125,-0.13964185939540563,1137.6454285566363,2011.0000009304383,1497.6245963445713,507.49981950465593,-96.82742030867303,764.8101840319133,6.397476691245229,-26.20425887670468,-43.81578879663048
7.855176,5.341525876921314,-300.9487578939147,1849.0000002000154,-0.15172864564485736,1137.578427931156,2011.0000009303674,1497.6049059892805,513.3191793133986,-95.26619839296637,853.2170135438703,5.90028337537109,-26.979412997294336,-43.800640760990945
7.85618,5.34133469193173,-301.0681191905102,1849.000000196954,-0.16337794850830387,1137.5145246034613,2011.0000009302973,1497.585958746186,518.5066187905746,-94.07695194301459,943.5475639684065,5.353522790195342,-27.75906012802437,-43.78145877075702
7.857178,5.3411445334160055,-301.1829201619309,1849.0000001939436,-0.17458867244097687,1137.453731247131,2011.0000009302273,1497.5677539998544,523.087789250362,-93.26095598423687,1035.8126039726928,4.758339082874477,-28.541992301491202,-43.75809385419307
7.858178,5.340955400744056,-301.2931227929308,1849.000000190986,-0.18536018523276934,1137.3960566493363,2011.0000009301573,1497.5502904973232,527.0921364648287,-92.81758666399038,1130.0246092681657,4.116080538840326,-29.326901191860237,-43.730418628917604
7.85918,5.340767293247708,-301.3986952149844,1849.0000001880828,-0.19569230718780362,1137.3415058034805,2011.0000009300863,1497.5335663691365,530.5528550807174,-92.74427852834266,1226.1975231415297,3.428297017671451,-30.11237900730344,-43.69832765091481
7.86018,5.340580210220778,-301.4996115803317,1849.000000185236,-0.20558530013522228,1137.2900800033128,2011.0000009300145,1497.5175791504817,533.5068297309581,-93.03649442001675,1324.3464977176975,2.6967365694714207,-30.896920215449203,-43.66173763594863
7.861182,5.34039415091914,-301.59585193314507,1849.0000001824467,-0.21503985628545505,1137.2417769383978,2011.0000009299426,1497.5023258024053,535.9945628473779,-93.6877085473153,1424.48761696189,1.9233412421490268,-31.678924118044826,-43.6205875520019
7.862184,5.340209114560807,-301.68740207800727,1849.0000001797155,-0.2240570869460385,1137.1965907908095,2011.0000009298717,1497.4878027330774,538.060089256549,-94.68940316514521,1526.6376025440284,1.1102420930007466,-32.45669828366083,-43.57483858278835
7.863188,5.3400251003260015,-301.7742534458883,1849.0000001770434,-0.2326385111108809,1137.154512332932,2011.0000009298017,1497.4740058190857,539.7508777133735,-96.03107919772302,1630.8135038050557,0.25975342008449115,-33.22846284024681,-43.52447396368058
7.864185,5.339842107357241,-301.85640295780877,1849.0000001744313,-0.2407860439366692,1137.1155290262404,2011.0000009297326,1497.4609304267306,541.1177195962538,-97.70028101911501,1737.0323731822566,-0.6256337699786588,-33.99235562224395,-43.4694986924031
7.865191,5.3396601347594155,-301.9338528863771,1849.0000001718802,-0.24850198511991128,1137.079625120942,2011.0000009296662,1497.4485714333016,542.2146050526227,-99.68263549333571,1845.3109285699343,-1.543259040821462,-34.746438159397044,-43.40993911753764
7.866189,5.339479181599871,-302.00661071538684,1849.00000016939,-0.255789007187895,1137.0467817563533,2011.0000009296034,1497.4369232483102,543.0985869428789,-101.96190526104502,1955.6652042140834,-2.4903005349582332,-35.48870248618255,-43.34584240838306
7.867191,5.339299246908495,-302.07468899765973,1849.0000001669607,-0.2626501437166242,1137.0169770618977,2011.0000009295443,1497.4259798346588,543.8296329829884,-104.52005614542082,2068.1101918657555,-3.463783695402468,-36.217078741904494,-43.27727591017781
7.86819,5.339120329677804,-302.1381052113187,1849.0000001645915,-0.26908877748856397,1136.9901862585996,2011.0000009294888,1497.415734729722,544.4704665302181,-107.33733843558069,2182.659474047105,-4.46059068270352,-36.92944352232095,-43.20432638923012
7.869193,5.338942428863026,-302.1968816146737,1849.0000001622823,-0.27510862860279206,1136.96638176096,2011.000000929437,1497.4061810663204,545.0863964923643,-110.39238169163265,2299.3248514144675,-5.477470468294492,-37.62362893456548,-43.127099173033926
7.870194,5.338765543382196,-302.25104509990143,1849.0000001600322,-0.2807137425499114,1136.945533279102,2011.0000009293888,1497.3973115935648,545.7451368686162,-113.66230260060152,2418.115966330339,-6.5110495833888145,-38.297432298273485,-43.045717190820675
7.871196,5.3385896721162425,-302.3006270456975,1849.0000001578403,-0.2859084782638277,1136.9276079210695,2011.000000929345,1497.3891186975495,546.5166164501898,-117.12282529700312,2539.039924875661,-7.557843501884154,-38.94862642703326,-42.96031992018779
7.872198,5.338414813909087,-302.3456631690775,1849.0000001557048,-0.29069749616224394,1136.912570295177,2011.000000929306,1497.381594421876,547.472779221428,-120.74841344629922,2662.100919639744,-8.614268636290685,-39.574970415491705,-42.87106224567817
7.8732,5.33824096756773,-302.38619337649857,1849.0000001536248,-0.2950857461874598,1136.9003826122996,2011.0000009292714,1497.3747304879885,548.6873760077418,-124.51241327517955,2787.2998557120177,-9.676654926896125,-40.174220849123714,-42.77811323577671
7.874205,5.338068131862349,-302.4222616144733,1849.0000001515975,-0.29907845585880094,1136.8910047880026,2011.0000009292414,1497.3685183153054,550.2357479165287,-128.38720662138698,2914.6339823627936,-10.741259004718449,-40.74414334663873,-42.68165484587037
7.875203,5.337896305526399,-302.45391571984015,1849.0000001496212,-0.3026811183477289,1136.8843945444096,2011.0000009292169,1497.3629490411213,552.1946021125077,-132.3443729694737,3044.096532935039,-11.804277907027414,-41.282524339802045,-42.58188055612726
7.876202,5.337725487256706,-302.4812072698524,1849.000000147694,-0.30589948058640903,1136.8805075117143,2011.0000009291996,1497.3580135402672,554.641780461604,-136.35485933893884,3175.676375472267,-12.861863320051222,-41.787182992032974,-42.47899395471416
7.877205,5.337555675713575,-302.50419143224434,1849.000000145814,-0.3087395314202332,1136.8792973292411,2011.0000009291905,1497.3537024445113,557.6560215699906,-140.38915679860636,3309.3576765758035,-13.910136317538877,-42.255983155002085,-42.37320727807146
7.878206,5.337386869520892,-302.52292681542673,1849.0000001439796,-0.3112074898145098,1136.8807157459623,2011.0000009291905,1497.3500061616853,561.3167167401087,-144.41748229641155,3445.1195809155024,-14.945202556950195,-42.686845261109035,-42.26473992092728
7.879207,5.337219067266225,-302.5374753189625,1849.0000001421888,-0.31330979312524815,1136.8847127203833,2011.0000009292005,1497.3469148945178,565.7036603667794,-148.4099644174914,3582.935908710345,-15.96316788760917,-43.07775804920904,-42.15381692919117
7.880208,5.33705226750093,-302.5479019844667,1849.0000001404408,-0.31505308544367294,1136.8912365197139,2011.0000009292214,1497.344418659162,570.8967953070116,-152.33683161658098,3722.7748733498825,-16.960154317159994,-43.42679002184132,-42.040667488766914
7.881209,5.336886468740262,-302.5542748470722,1849.0000001387327,-0.31644420602381196,1136.9002338182404,2011.0000009292542,1497.3425073034018,576.9759537789568,-156.1686014148893,3864.5988211469885,-17.932316273964346,-43.73210053502922,-41.92552342284854
7.88221,5.336721669463484,-302.55666478759645,1849.000000137061,-0.3174901778022059,1136.9116497948219,2011.0000009292996,1497.341170524524,584.0205943792563,-159.87626900917445,4008.363995001177,-18.8758570936615,-43.99195042643199,-41.80861770969064
7.883217,5.336557868113971,-302.55514538554326,1849.0000001354222,-0.31819819601849025,1136.9254282294312,2011.0000009293578,1497.3403978868414,592.1095358527368,-163.43149371409763,4154.0203235150975,-19.78704564825657,-44.20471209381969,-41.69018303230306
7.884213,5.336395063099328,-302.54979277306575,1849.0000001338133,-0.31857561694530223,1136.941511598669,2011.0000009294279,1497.340178838856,601.3206883015414,-166.80678165017957,4301.511236850088,-20.66223302643883,-44.368878943252405,-41.570450370975074
7.885215,5.336233252791502,-302.54068549001585,1849.0000001322317,-0.3186299467356644,1136.9598411701807,2011.000000929507,1497.340502730048,611.7307825789732,-169.97566310025513,4450.773510335289,-21.49786916524199,-44.483074134916265,-41.44964764892073
7.886216,5.336072435526897,-302.52790434019784,1849.0000001306746,-0.318368830395697,1136.9803570959077,2011.0000009295925,1497.341358827283,623.4150986728308,-172.91286298812162,4601.737136564434,-22.290519326491257,-44.546058563992595,-41.32799844063007
7.887218,5.335912609606492,-302.51153224894176,1849.0000001291403,-0.31780004089020647,1137.002998504112,2011.0000009296816,1497.3427363308251,636.4471939402035,-175.5944629846053,4754.325226431232,-23.036880307340514,-44.556738023425766,-41.20572075163102
7.888217,5.335753773295959,-302.491654122108,1849.0000001276278,-0.3169314683883983,1137.0277035901058,2011.0000009297726,1497.3446243899427,650.8986321073522,-177.99805381867807,4908.453939275347,-23.733796272871594,-44.51416950413827,-41.08302587709924
7.889223,5.335595924825784,-302.4683567066278,1849.0000001261362,-0.31577110965665867,1137.0544097056359,2011.0000009298617,1497.3470121181049,666.838713991865,-180.10287646426158,5064.0324420442375,-24.37827410006761,-44.41756659578077,-40.96011734490176
7.890222,5.3354390623913845,-302.4417284526828,1849.0000001246656,-0.314327057605048,1137.083053446858,2011.0000009299454,1497.3498886077502,684.3342109378408,-181.88995098614643,5220.962897130359,-24.96749812596048,-44.266303957894024,-40.837189946313565
7.891224,5.335283184153238,-302.41185937762134,1849.0000001232158,-0.3126074909938469,1137.1135707408564,2011.0000009300209,1497.3532429446232,703.4491019770862,-183.34219195963692,5379.140478327459,-25.498844197796995,-44.05992083820787,-40.71442885518534
7.892229,5.335128288236998,-302.3788409317042,1849.0000001217861,-0.3106206643061961,1137.145896930652,2011.0000009300863,1497.357064221676,724.2443157392104,-184.44450952608923,5538.453414172633,-25.96989292925976,-43.7981236224502,-40.5920088341935
7.893226,5.334974372733628,-302.34276586576976,1849.0000001203764,-0.3083748977925711,1137.179966858655,2011.00000093014,1497.3613415525267,746.7774781302697,-185.18389530779854,5698.7830578094,-26.378442073994606,-43.48078740883444,-40.470093525189064
7.894228,5.334821435699529,-302.30372810090347,1849.0000001189876,-0.30587856769253374,1137.2157149485156,2011.000000930181,1497.3660640844605,771.1026667826836,-185.54949257750198,5860.003982425845,-26.72251793606253,-43.10795661013583,-40.348834819576375
7.895229,5.334669475156671,-302.2618226001923,1849.0000001176206,-0.30314009663890873,1137.2530752853352,2011.0000009302082,1497.371221010975,797.2701732484995,-185.53265025650597,6021.984101291944,-27.000385746584378,-42.67984459619957,-40.22837230406648
7.896228,5.334518489092725,-302.21714524264087,1849.0000001162764,-0.30016794424923515,1137.291981694191,2011.000000930221,1497.3768015838637,825.3262738645567,-185.12696049732565,6184.5848114391765,-27.210558946688774,-42.196832398739005,-40.10883277714172
7.897231,5.334368475461189,-302.16979269932153,1849.0000001149558,-0.29697059790905284,1137.3323678169443,2011.0000009302182,1497.3827951248304,855.3130101633917,-184.3282797878494,6347.661160087812,-27.351807328508535,-41.65946650736292,-39.990329832220354
7.898232,5.334219432181526,-302.1198623118279,1849.0000001136607,-0.29355656375129263,1137.3741671872963,2011.0000009302,1497.3891910366324,887.267979640259,-183.1347336904103,6511.06203302556,-27.42316399775896,-41.0684557905303,-39.872963504721525
7.899236,5.3340713571393,-302.0674519730951,1849.000000112392,-0.28993435783575183,1137.4173133040601,2011.0000009301664,1497.3959788137518,921.2241376171105,-181.54670549668506,6674.630364266958,-27.423931132725127,-40.42466757807703,-39.756819981698015
7.900234,5.3339242481863165,-302.012660010648,1849.0000001111487,-0.2861124975323512,1137.4617397026198,2011.0000009301182,1497.4031480525878,957.2096108715648,-179.56680923414675,6838.203366467539,-27.35368452469781,-39.729122944291525,-39.641971374124715
7.90124,5.3337781031407525,-301.9555850723332,1849.00000010993,-0.2820994931115881,1137.5073800245493,2011.0000009300554,1497.4106884611679,995.2475236254402,-177.19984759859548,7001.612781721832,-27.212276893434982,-38.982991233553705,-39.52847555315037
7.902238,5.333632919787303,-301.89632601458806,1849.0000001087358,-0.27790383954532255,1137.5541680853703,2011.000000929979,1497.41858986838,1035.3558364157682,-174.4527555079446,7164.685152531177,-26.99983997764712,-38.18758387511249,-39.416376052567976
7.90324,5.333488695877318,-301.8349817932949,1849.0000001075662,-0.27353400852075715,1137.602037940426,2011.00000092989,1497.4268422327227,1077.5471983035723,-171.33453007423674,7327.24211287749,-26.71678540473975,-37.344347539692855,-39.305702040371884
7.904239,5.333345429128947,-301.7716513572652,1849.000000106422,-0.26899844067020034,1137.6509239488535,2011.000000929789,1497.4354356505733,1121.828812814118,-167.85614787453727,7489.10069947328,-26.363804346491122,-36.454856697744674,-39.196468362528634
7.905241,5.3332031172272805,-301.70643354439574,1849.0000001053052,-0.264305538018935,1137.7007608356334,2011.0000009296762,1497.4443603639725,1168.2023179485964,-164.03047046879985,7650.073683367035,-25.941865968808013,-35.52080564652973,-39.0886756620688
7.906243,5.333061757824504,-301.63942698053313,1849.0000001042174,-0.25946365665325105,1137.751483751711,2011.0000009295525,1497.4536067679278,1216.6636805626858,-159.8721391666847,7809.969922157421,-25.452214685029737,-34.54400008022194,-38.98231057646378
7.907244,5.332921348540045,-301.5707299810815,1849.0000001031606,-0.2544810996104404,1137.8030283321696,2011.0000009294188,1497.4631654172363,1267.2031053728863,-155.3974600885232,7968.594733101506,-24.896366223938603,-33.52634828324591,-38.877346016073766
7.908245,5.3327818869607135,-301.5004404553827,1849.0000001021365,-0.24936610999229816,1137.8553307524508,2011.000000929276,1497.4730270328298,1319.8049588268016,-150.62428060074043,8125.750287385419,-24.276102525763584,-32.46985203171218,-38.77374152612699
7.909247,5.332643370640859,-301.4286558138959,1849.0000001011451,-0.24412686430342243,1137.9083277826119,2011.000000929125,1497.4831825076426,1374.4477080577362,-145.57185823492605,8281.23602575665,-23.593465481701898,-31.376597290452782,-38.67144373398753
7.910252,5.332505797102518,-301.3554728782004,1849.0000001001865,-0.23877146601535965,1137.9619568396151,2011.0000009289668,1497.493622912006,1431.1038751355093,-140.26072322331098,8434.84909559468,-22.850749534432538,-30.24874479325026,-38.570386882184614
7.911249,5.332369163835566,-301.2809877938412,1849.0000000992598,-0.23330793935739966,1138.0161560376466,2011.0000009288021,1497.5043394985748,1489.7400068224194,-134.712535801699,8586.384809322228,-22.05049315879115,-29.088520591004276,-38.47049344568708
7.912249,5.332233468297885,-301.20529594603386,1849.000000098364,-0.22774422333458932,1138.070864236464,2011.000000928632,1497.5153237067857,1550.3166600440138,-128.94993944321823,8735.637123837278,-21.1954692434874,-27.898206646810056,-38.37167482933015
7.91325,5.332098707915507,-301.1284918782417,1849.000000097498,-0.22208816597330144,1138.1260210877722,2011.0000009284565,1497.5265671668544,1612.7884032870095,-122.99641119146222,8882.399140382473,-20.288674396608158,-26.680131548857826,-38.273832138593804
7.914251,5.331964880082775,-301.05066921363544,1849.0000000966622,-0.2163475187944691,1138.181567079631,2011.0000009282746,1497.5380617033143,1677.1038341399606,-116.87611025843596,9026.463623971958,-19.33331719978834,-25.436661402863162,-38.17685701470279
7.915256,5.3318319821625035,-300.9719205794437,1849.0000000958564,-0.2105299315143733,1138.2374435788993,2011.0000009280864,1497.5497993381045,1743.2056131946563,-110.61372604014612,9167.623541176443,-18.332805438462977,-24.17019095674339,-38.08063252380269
7.916254,5.331700011486138,-300.89233753419586,1849.0000000950797,-0.2046429469726568,1138.2935928717209,2011.0000009278926,1497.5617722932118,1811.0305145262669,-104.23432667999211,9305.672614736457,-17.290732338572965,-22.88313500259681,-37.98503409002226
7.917257,5.331568965353914,-300.81201049786006,1849.0000000943312,-0.19869399628702594,1138.349958202062,2011.0000009276935,1497.5739729928714,1880.5094929661825,-97.76320927709133,9440.405893143508,-16.210861843682995,-21.577920095251013,-37.88993046334684
7.91826,5.3314388410350215,-300.7310286848741,1849.00000009361,-0.19269039423389678,1138.4064838083086,2011.0000009274897,1497.5863940653344,1951.5677683714132,-91.22575279349651,9571.620333011067,-15.097112971036934,-20.25697662231135,-37.79518471484082
7.919265,5.3313096357677745,-300.6494800400639,1849.0000000929151,-0.18663933485404163,1138.4631149579375,2011.0000009272824,1497.5990283442109,2024.124927076524,-84.6472746614451,9699.115391763622,-13.953543290935738,-18.922731256528543,-37.70065525331651
7.92026,5.331181346759777,-300.5674511774425,1849.0000000922466,-0.18054788728209864,1138.5197979802708,2011.0000009270723,1497.611868869392,2098.0950406869124,-78.05289203004843,9822.693627912196,-12.78433158124279,-17.577599816105828,-37.60619685870527
7.921262,5.3310539711880915,-300.48502732187904,1849.0000000916045,-0.17442299179861764,1138.576480297332,2011.0000009268604,1497.6249088875634,2173.3868023347904,-71.46738852108297,9942.161305967324,-11.59375971777537,-16.22398055180011,-37.511661728053774
7.922263,5.330927506199404,-300.402292253626,1849.0000000909906,-0.16827145610313402,1138.6331104528174,2011.0000009266475,1497.6381418523124,2249.9036804708903,-64.91508728684829,10057.329002871853,-10.386193871305222,-14.864247872009907,-37.41690053038446
7.923265,5.330801948910196,-300.31932825568845,1849.0000000904067,-0.16209995180658288,1138.6896381392048,2011.0000009264347,1497.6515614238428,2327.5440902054156,-58.41973108055574,10168.012212720714,-9.166065092113996,-13.5007465097608,-37.321763466809934
7.924265,5.3306772964069165,-300.23621606401827,1849.0000000898547,-0.15591501114119627,1138.746014223013,2011.0000009262228,1497.665161468305,2406.2015821414925,-52.00436996254673,10274.03194647556,-7.937849372803155,-12.135786129675315,-37.2261013323437
7.925268,5.330553545746154,-300.1530348205121,1849.0000000893363,-0.14972302388586015,1138.802190768237,2011.0000009260136,1497.6789360567511,2485.7650485642316,-45.69125717490795,10375.2153233799,-6.706047288893554,-10.771636369143192,-37.12976657575692
7.926268,5.33043069395481,-300.0698620287925,1849.0000000888524,-0.1435302345047477,1138.8581210579791,2011.00000092581,1497.6928794637206,2566.118946760039,-39.50175362387935,10471.396150833873,-5.47516332473494,-9.410522305856674,-37.032614353498474
7.927269,5.330308738030278,-299.9867735127457,1849.000000088404,-0.13734273949689216,1138.9137596142966,2011.0000009256153,1497.7069861654745,2647.1435391459454,-33.45624131509527,10562.415489594408,-4.2496849996209995,-8.054620343019396,-36.93450357305622
7.928274,5.330187674940622,-299.90384337779136,1849.000000087992,-0.13116648495421387,1138.9690622162955,2011.0000009254334,1497.721250837882,2728.715149789513,-27.57404599254067,10648.12220132189,-3.0340619157829427,-6.706054503125539,-36.835297920223006
7.929273,5.330067501624755,-299.82114397485407,1849.0000000876155,-0.1250072643253742,1139.0239859164917,2011.000000925267,1497.7356683539704,2810.7064367982525,-21.87336913947162,10728.373475692188,-1.8326848559337932,-5.366893120713794,-36.734866863652485
7.930273,5.329948214992621,-299.73874586700674,1849.0000000872726,-0.1188707163826932,1139.0784890554685,2011.0000009251187,1497.7502337811518,2892.986679955122,-16.37122940943367,10803.035334525623,-0.6498650627952088,-4.039145923718237,-36.633086628987826
7.931275,5.329829811925378,-299.65671779875345,1849.0000000869607,-0.11276232338923667,1139.1325312748545,2011.0000009249914,1497.7649423781384,2975.4220828748935,-11.083413468348308,10871.983110642923,0.5101861641029617,-2.724761491953844,-36.52984113386757
7.932276,5.329712289275575,-299.5751266679165,1849.000000086676,-0.10668740946305419,1139.1860735286546,2011.0000009248868,1497.7797895915548,3057.8760888562642,-6.024436144322665,10935.101899432226,1.6433774183536538,-1.4256250798756913,-36.425022874345615
7.933276,5.32959564386734,-299.4940375000924,1849.000000086415,-0.10065113913543108,1139.2390780929602,2011.0000009248067,1497.794771052262,3140.2097095075874,-1.2075097000046924,10992.28698138979,2.7457565484503674,-0.14355678889880724,-36.31853375271545
7.934279,5.32947987249657,-299.4135134256388,1849.000000086174,-0.09465851609990387,1139.2915085740703,2011.000000924753,1497.8098825714028,3222.281865131389,3.3554780372868898,11043.444214168905,3.81352929898935,1.1196899279045436,-36.21028583638658
7.935281,5.329364971931113,-299.33361565915266,1849.0000000859502,-0.08871438214868231,1139.3433299150556,2011.0000009247267,1497.8251201361834,3303.949735765922,7.653977029548975,11088.490392925542,4.843077102389278,2.362429448958069,-36.10020203736755
7.936281,5.329250938910959,-299.2544034813991,1849.000000085742,-0.08282341629301934,1139.3945084007937,2011.0000009247285,1497.8404799053997,3385.0691217025455,11.678780281790347,11127.353577975495,5.830973896874763,3.583044878577611,-35.98821670227612
7.937287,5.329137770148425,-299.17593422364916,1849.0000000855473,-0.07699013406397481,1139.4450116615135,2011.0000009247603,1497.8559582047242,3465.49481222734,15.422021479569816,11159.973388967966,6.77400185275555,4.7799886783559415,-35.874276103998334
7.938285,5.32902546232835,-299.09826325438246,1849.0000000853645,-0.07121888698992888,1139.4948086748786,2011.000000924824,1497.871551521765,3545.0809612750327,18.87716555546296,11186.301264929438,7.6691658974817365,5.9517830617086736,-35.758338828465945
7.939287,5.328914012108284,-299.0214439683099,1849.0000000851917,-0.06551386224711682,1139.5438697666439,2011.0000009249204,1497.8872565009108,3623.681468633607,22.038992780200527,11206.300689636359,8.51370694079308,7.097020175551231,-35.6403760534882
7.940286,5.328803416118688,-298.9455277776704,1849.000000085028,-0.05987908247937808,1139.5921666099207,2011.0000009250505,1497.9030699379755,3701.1503652988267,24.903577012079918,11219.947381836122,9.305113714289886,8.214362088373164,-35.520371720687315
7.941287,5.328693670963125,-298.8705641057546,1849.0000000848715,-0.05431840578323941,1139.6396722230847,2011.000000925216,1497.9189887746502,3777.3422015492283,27.468258761440968,11227.22944985519,10.041133154230817,9.302540597714033,-35.39832260554514
7.942289,5.328584773218461,-298.79660038260715,1849.0000000847215,-0.04883552585438421,1139.6863609663615,2011.0000009254188,1497.9350100927843,3852.112436293967,29.731613734452434,11228.147510114886,10.719779271447248,10.360356863664473,-35.27423829360927
7.943291,5.3284767194350575,-298.72368204285885,1849.0000000845769,-0.043433972291497924,1139.7322085371286,2011.0000009256607,1497.951131108504,3925.317826238365,31.693417511883943,11222.714769024298,11.339340467289594,11.386680869965609,-35.14814107265926
7.944292,5.328369506136977,-298.6518525256383,1849.0000000844377,-0.03811711105342239,1139.7771919639665,2011.0000009259436,1497.9673491661833,3996.8168134153343,33.354606994322666,11210.957067641497,11.898385269024425,12.380450711516865,-35.02006575111581
7.945294,5.328263129822186,-298.58115327651154,1849.000000084303,-0.03288814506550021,1139.8212895994977,2011.00000092627,1497.9836617322787,4066.4699096450368,34.71723920646845,11192.91288839606,12.395766472003482,13.340671706818023,-34.890059412405755
7.9463,5.328157586962753,-298.5116237513993,1849.000000084173,-0.02775011497094434,1139.86448111205,2011.000000926643,1498.000066389045,4134.140076509791,35.78444800145285,11168.633323055788,12.830623689640221,14.26641533559129,-34.758181113652576
7.947298,5.328052874005057,-298.4433014224187,1849.0000000840485,-0.022705900023026075,1139.9067474761812,2011.000000927065,1498.016560828147,4199.6930994657505,36.56039914405396,11138.182001008206,13.202384326095226,15.15681800483666,-34.62450153521611
7.948298,5.327948987369983,-298.37622178559656,1849.0000000839302,-0.01775821911383881,1139.9480709621046,2011.0000009275398,1498.0331428441734,4262.997954756187,37.05024418226656,11101.634976823467,13.510763000453625,16.011079650318568,-34.489102585526865
7.949299,5.327845923453131,-298.3104183704007,1849.0000000838202,-0.012909631935363463,1139.9884351240491,2011.000000928071,1498.0498103280713,4323.927167841952,37.260073443238944,11059.080575980906,13.755759464642935,16.82846218463889,-34.352076963643945
7.9503,5.327743678625025,-298.24592275103583,1849.000000083721,-0.008162540268535032,1140.0278247875951,2011.0000009286612,1498.0665612605183,4382.357162121411,37.196868415330165,11010.619197587785,13.937655069779057,17.60828780738367,-34.213527680225084
7.951301,5.327642249231327,-298.1827645594484,1849.0000000836355,-0.003519189395988064,1140.0662260360214,2011.0000009293124,1498.0833937052403,4438.168596772977,36.868453705910646,10956.363072906355,14.057007846547284,18.349937197068314,-34.07356753623055
7.952303,5.327541631593037,-298.12097149998726,1849.0000000835655,0.0010183303658580253,1140.103626195702,2011.0000009300254,1498.1003058022925,4491.246692616541,36.28344869708531,10896.43597854355,14.114646274550758,19.052847608315005,-33.93231855780976
7.953304,5.3274418220067075,-298.0605693656634,1849.0000000835137,0.005448082019725327,1140.1400138205913,2011.0000009308012,1498.117295761317,4541.48154495393,35.45121896092025,10830.972903253914,14.111661823203569,19.716510900324234,-33.789911385594
7.954306,5.327342816744657,-298.0015820559548,1849.0000000834827,0.009768280129774813,1140.1753786758356,2011.0000009316389,1498.1343618547883,4588.768422411327,34.38182744371618,10760.119667466784,14.04940035229679,20.34047152391153,-33.64648461710661
7.955312,5.327244612055181,-297.94403159610005,1849.0000000834746,0.013977288957637491,1140.2097117205478,2011.0000009325374,1498.1515024112637,4633.008050867212,33.08598538663413,10684.032494876512,13.929452463560516,20.924324494258993,-33.502184102152434
7.956307,5.327147204162769,-297.8879381578258,1849.00000008349,0.018073620496541244,1140.2430050897835,2011.000000933496,1498.1687158086481,4674.106881606981,31.575002918300942,10602.877535731177,13.753642895442336,21.467713375466257,-33.35716219272551
7.957309,5.32705058926832,-297.8333200814518,1849.00000008353,0.022055932407890225,1140.2752520757545,2011.0000009345129,1498.186000467487,4711.977342899639,29.860739234200423,10516.830341819501,13.524019052112969,21.970328301457318,-33.21157695098005
7.95831,5.326954763549358,-297.78019389931814,1849.0000000835955,0.02592302586464444,1140.3064471083196,2011.000000935586,1498.2033548443055,4746.538074243084,27.9555522675571,10426.075293583972,13.242838754815024,22.431904056201553,-33.065591320970334
7.959312,5.326859723160251,-297.7285743604789,1849.0000000836883,0.029673843305834075,1140.3365857347903,2011.0000009367147,1498.2207774250014,4777.7141425732,25.87224775657296,10330.80498027434,12.912557299614502,22.852218234679082,-32.919372272049806
7.960313,5.326765464232435,-297.6784744566069,1849.0000000838102,0.03330746610652594,1140.3656645990827,2011.000000937898,1498.2382667183085,4805.437239779048,23.624027622583053,10231.219534591219,12.535813900833066,23.231089504463906,-32.77308992390602
7.961315,5.326671982874631,-297.6299054490543,1849.000000083963,0.0368231121675388,1140.393681420261,2011.000000939135,1498.2558212493407,4829.645860913121,21.224437592112487,10127.525923843312,12.115417594538634,23.568375986071697,-32.62691666509888
7.962316,5.326579275173068,-297.5828768970133,1849.0000000841485,0.040220133429179517,1140.4206349705007,2011.0000009404246,1498.2734395532314,4850.285462533026,18.687314021983504,10019.937200241187,11.654332672059894,23.863973768322005,-32.481026278595195
7.963319,5.326487337191708,-297.5373966867231,1849.0000000843677,0.04349801331324429,1140.446525052515,2011.000000941766,1498.2911201688792,4867.308600660232,16.026729919428536,9908.67171356057,11.155663709662285,24.11781557311578,-32.335593089020186
7.964322,5.326396164972468,-297.49347106166755,1849.0000000846214,0.04665636409749734,1140.4713524764727,2011.0000009431585,1498.308861632811,4880.675047893921,13.25694018734495,9793.952290013685,10.622640257138112,24.329869582585285,-32.19079114695573
7.965321,5.326305754535447,-297.45110465370976,1849.0000000849107,0.049694924226804854,1140.4951190364482,2011.0000009445992,1498.3266624731768,4890.351889274295,10.39232616698136,9676.005381751824,10.058601245122679,24.50013844082876,-32.04679346532318
7.966321,5.326216101879149,-297.41030051510995,1849.0000000852353,0.05261355556506373,1140.5178274864363,2011.0000009460844,1498.3445212038853,4896.313596550814,7.447339595030208,9555.0601919703,9.466979168432056,24.62865844250076,-31.903771321452947
7.967322,5.326127202980715,-297.3710601513725,1849.0000000855955,0.055412240592023605,1140.53948151597,2011.0000009476105,1498.3624363188935,4898.542080577074,4.436446137913897,9431.347781083032,8.851284100748789,24.71549892127062,-31.7618936358706
7.968323,5.326039053796152,-297.33338355486995,1849.0000000859902,0.05809107954905634,1140.5600857253696,2011.000000949173,1498.3804062866611,4897.026721625422,1.3740687116543262,9305.100159864156,8.215087594978623,24.76076185220162,-31.621326435439173
7.969325,5.325951650260563,-297.2972692391914,1849.0000000864186,0.06065028753788029,1140.5796456006613,2011.0000009507664,1498.3984295447813,4891.764377490827,-1.7254691601954462,9176.549375805938,7.562006523740323,24.76458168289272,-31.482232404675038
7.970327,5.3258649882883775,-297.26271427416293,1849.0000000868788,0.06309019157619661,1140.5981674881966,2011.0000009523862,1498.4165044947956,4882.759369334693,-4.8479996567877395,9045.926599205122,6.8956869154358325,24.72712540823676,-31.344770525066618
7.971328,5.325779063773589,-297.22971432148955,1849.000000087369,0.06541122761414238,1140.6156585690055,2011.000000954027,1498.4346294972063,4870.02344530516,-7.979566307379826,8913.461215655214,6.219787842781129,24.648592902400512,-31.20909579830542
