time,altitude,rc_ele,rc_thr,rc_rud,tx_ele,tx_thr,tx_rud,acc_X,acc_Y,acc_Z,gyro_pitch,gyro_roll,gyro_yaw
29.000273,1.852606379880456,-469.37245224840785,1848.999993024366,-277.05672871848157,1010.4989023574323,2010.9991860501484,1119.2382402161113,4382.84271590596,1051.5312138705776,12132.477710330739,42.48170303868866,-38.85246465448415,-43.12614369881829
29.001273,1.853307655405937,-468.7526311284559,1848.9999838307788,-278.92175484327896,1011.171278024171,2010.999154027914,1118.462768714059,4454.0518033413955,1015.4994438059808,12135.525841926852,40.91366579037099,-37.35139703401745,-43.0377302401749
29.002275,1.8540114534730538,-468.1032199570229,1848.9999744296495,-280.7882370344679,1011.8657182213193,2010.9991220723139,1117.687101953657,4525.105209063019,979.6726800020483,12135.36167738199,39.36031083856468,-35.82576349836172,-42.95606376538245
29.003274,1.8547177699096455,-467.42392513139754,1848.99996482532,-282.6553227731659,1012.5823862323628,2010.9990902168936,1116.9116592643475,4595.8560129513935,944.1170137029118,12131.884165821391,37.82409384764065,-34.276768377741284,-42.881747095968635
29.004277,1.8554266004767144,-466.71446754313746,1848.9999550224404,-284.52215403157635,1013.32143588428,2010.9990584959157,1116.1368644077606,4666.155357972687,908.8982639084722,12124.99909356647,36.30744366723207,-32.70564947738413,-42.81538121690015
29.005279,1.8561379408684309,-465.97458295446984,1848.9999450259713,-286.3878679455524,1014.083011353853,2010.9990269443422,1115.363145289165,4735.852863409681,874.0817523764507,12114.61947880034,34.812756493165566,-31.113675170297316,-42.75756316396392
29.00628,1.856851786712139,-465.2040223627953,1848.9999348411877,-288.2515974920404,1014.8672469811147,2010.9989955978178,1114.5909336639197,4804.797045993151,839.7320797503872,12100.665941456427,33.34239014726002,-29.502141539256833,-42.70888391406936
29.00728,1.8575681335683651,-464.4025523526342,1848.999924473682,-290.11247217040466,1015.6742670902238,2010.9989644926507,1113.8206648392595,4872.835747202716,805.9129038961406,12083.06704609289,31.898658484919203,-27.872369589404624,-42.66992629316307
29.008286,1.8582869769308303,-463.56995543436864,1848.9999139293652,-291.96961868664494,1016.5041858180489,2010.9989336657907,1113.0527773717586,4939.816565008427,772.6867215171869,12061.759615465735,30.48382594220202,-26.225702553840573,-42.641262916049996
29.009284,1.8590083122264638,-462.7060303691525,1848.999903214469,-293.82216163952955,1017.3571069507401,2010.9989031548082,1112.2877127608253,5005.58728833643,740.114654095078,12036.689012467437,29.10010223621728,-24.56350331367606,-42.62345417113113
29.010286,1.8597321348154205,-461.8105924793822,1848.999892335548,-295.66922420768276,1018.2331237685512,2010.998872997872,1111.5259151385872,5069.996332562487,708.2562391645633,12007.809388065241,27.749637234735822,-22.88715195103814,-42.61704626120351
29.011286,1.8604584399910984,-460.88347394414035,1848.9998812994802,-297.509928836679,1019.1323188991723,2010.9988432337266,1110.7678309565285,5132.893174364878,677.1692278832905,11975.083892864242,26.43451601338594,-21.19804344918197,-42.62256930940356
29.012288,1.86118722298016,-459.9245240790488,1848.9998701134684,-299.34339792521854,1020.0547641798184,2010.9988139016657,1110.0139086692423,5194.128784302706,646.9093897951357,11938.484849944245,25.156754121608486,-19.49758554919987,-42.640535537363625
29.013289,1.8619184789425562,-458.93360959999234,1848.9998587850407,-301.1687545094778,1021.0005205283094,2010.998785041508,1109.2645984156438,5253.556055526398,617.530325616264,11897.993886685046,23.91829308109095,-17.787196768525277,-42.671437520839916
29.014294,1.8626522029715507,-457.9106148701991,1848.9998473220496,-302.9851229447537,1021.9696378233639,2010.9987566935695,1108.5203516979916,5311.030227073756,589.0832887961876,11853.602023409578,22.720996141908643,-16.068304582766338,-42.71574652654284
29.015292,1.86338839009375,-456.85544213019324,1848.9998357326742,-304.79162958354544,1022.9621547943169,2010.9987288986347,1107.7816210590413,5366.409300256034,561.6170165241267,11805.30971684431,21.566644321406244,-14.342343769214049,-42.77391093267036
29.016294,1.8641270352691353,-455.768011710161,1848.9998240254201,-306.5874034492499,1023.9780989204545,2010.9987016979283,1107.0488597576582,5419.554446692792,535.1775707651614,11753.126856625795,20.45693274876755,-12.610754907346763,-42.846354734722716
29.017298,1.8648681333910935,-454.6482622243034,1848.9998122091185,-308.37157690467467,1025.0174863401462,2010.9986751330841,1106.3225214431989,5470.330406609858,509.8081898221344,11697.072713373433,19.393467334593073,-10.874983028677565,-42.933476137607656
29.018298,1.8656116792864543,-453.49615074677985,1848.9998002929244,-310.14328631460825,1026.0803217699383,2010.9986492461146,1105.6030598289658,5518.605876070358,485.5491508294405,11637.175837201412,18.377761780214332,-9.136476405428766,-43.035646234797234
29.019299,1.8663576677155274,-452.31165296887804,1848.9997882863156,-311.9016727017191,1027.1665984337526,2010.9986240793776,1104.8909283650303,5564.25388186356,462.4376434955825,11573.47390595513,17.411234936566174,-7.396685464837561,-43.15320777523468
29.020301,1.8671060933721428,-451.09476333708045,1848.99977619909,-313.6458823950888,1028.2762980023215,2010.998599675543,1104.1865799107081,5607.152142829871,440.5076553248273,11506.01352292465,16.495208517639973,-5.657061813527788,-43.286474018642814
29.021301,1.8678569508836935,-449.8454951717303,1848.999764041366,-315.37506767072,1029.409390542968,2010.998576077557,1103.4904664069588,5647.183416452935,419.7898684665449,11434.849964303605,15.630905168809576,-3.919057354470192,-43.435727679678315
29.022304,1.8686102348111808,-448.5638807660374,1848.999751823578,-317.0883873833968,1030.565834479818,2010.998553328606,1102.8030385489644,5684.2358296021785,400.3115682655336,11360.04687721779,14.819446885560005,-2.1841234775813083,-43.601219960885985
29.023303,1.869365939649262,-447.2499714652003,1848.9997395564753,-318.7850075893103,1031.7455765645157,2010.9985314720795,1102.124745459127,5718.203192362244,382.0965635188472,11281.675929733257,14.061853773570848,-0.4537103039278412,-43.78316967364688
29.024305,1.8701240598263003,-445.90383772545823,1848.9997272511175,-320.4641021589007,1032.9485518574852,2010.9985105515314,1101.456034360712,5748.9852939408465,365.1651183847144,11199.816414856885,13.35904313697739,1.2707340371145939,-43.98176244541677
29.025304,1.8708845897044182,-444.52556915292786,1848.9997149188705,-322.12485337940655,1034.1746837197647,2010.9984906106408,1100.7973502523441,5776.488179704669,349.5338958369004,11114.55481114957,12.711828878133437,2.9877641184318966,-44.197150010731434
29.026312,1.8716475235795518,-443.11527452211703,1848.999702571404,-323.766452546649,1035.4238838154083,2010.998471693172,1100.149135583555,5800.624408454868,335.2159125127773,11025.984303168816,12.120921189486932,4.695937933409036,-44.42944958295585
29.027307,1.872412855681507,-441.67308177405204,1848.999690220687,-325.3881005456198,1036.6960521244325,2010.9984538429314,1099.5118299315632,5821.313289120082,322.22050476480786,10934.204265528828,11.58692651622552,6.393817639990492,-44.678743303675404
29.028309,1.8731805801740198,-440.19913799399524,1848.999677878983,-326.9890084194784,1037.991076966255,2010.998437103726,1098.8858696794562,5838.48109611583,310.5533056925041,10839.31971489745,11.1103477670248,8.079970345898197,-44.94507776682101
29.029309,1.8739506911548187,-438.693609368775,1848.999665558845,-328.5683979266035,1039.3088350335547,2010.9984215193197,1098.271687695936,5852.061262694884,300.2162329047916,10741.440734726557,10.691584749519816,9.752968946858095,-45.228463614815
29.030312,1.8747231826556903,-437.15668112379103,1848.9996532731095,-330.12550208538045,1040.6491914364683,2010.9984071333863,1097.669713016769,5861.994551693474,291.20748674082324,10640.681877922816,10.330934806939034,11.41139302603086,-45.52887520402359
29.031312,1.8754980486425457,-435.58855743980064,1848.9996410348915,-331.65956570644386,1042.0119997570189,2010.9983939894662,1097.080370528078,5868.22920316263,283.52155866041414,10537.161552997646,10.02859363257613,13.053829819437551,-45.846250336580916
29.032314,1.87627528301549,-433.9894613496307,1848.999628857577,-333.1698459121288,1043.3971021136647,2010.9983821309177,1096.5040806516015,5870.721058461974,277.14924950310626,10431.001399478999,9.784656239644299,14.678875249255032,-46.180490055357026
29.033316,1.8770548796088937,-432.35963461499836,1848.9996167548154,-334.65561264291904,1044.8043292358373,2010.9983716008699,1095.941259032035,5869.433660484084,272.07769730718815,10322.325658516032,9.599118065987339,16.28513502429582,-46.53145849869619
29.034319,1.8778368321914674,-430.6993375836571,1848.999604740514,-336.1161491507137,1046.2335005483276,2010.9983624421745,1095.3923162265612,5864.338329770598,268.2904143766565,10211.260544655657,9.471876196332847,17.871225804411516,-46.89898281171843
29.035322,1.8786211344663386,-429.0088490271191,1848.9995928288292,-337.55075247876425,1047.6844242653608,2010.998354697356,1094.8576573966616,5855.414216376212,265.7673332850325,10097.93362471495,9.402730689101343,19.435776422846367,-47.28285311147193
29.036319,1.879407780071132,-427.2884659592375,1848.9995810341582,-338.95873392816566,1049.1568974941836,2010.9983484085612,1094.3376820023057,5842.648327433293,264.4848615098102,9982.473209515603,9.39138599970091,20.977429158180513,-47.6828225038562
29.037319,1.8801967625780487,-425.5385034359632,1848.999569371131,-340.33941951081283,1050.6507063479685,2010.9983436175087,1093.8327834985957,5826.035530467911,264.4159443993174,9865.00776398863,9.43745249722272,22.494841046344877,-48.09860715074479
29.038322,1.8809880754939512,-423.75929433662,1848.9995578546025,-341.6921503887625,1052.165626067831,2010.9983403654358,1093.34334903494,5805.578532617383,265.5301361837049,9745.665340804571,9.540448076377372,23.986685224052046,-48.52988638600667
29.039323,1.8817817122604483,-421.95118912707164,1848.999546499643,-343.01628329996583,1053.701421153737,2010.998338693046,1092.8697591568246,5781.287835999776,267.7936787523997,9624.573042244177,9.699799871411528,25.451652298008334,-48.97630287921107
29.040325,1.882577666253985,-420.11455560518374,1848.9995353215274,-344.31119097036134,1055.2578455040702,2010.9983386404544,1092.412387510248,5753.18166958677,271.1695879309201,9501.856514506482,9.914846083621093,26.88845173883677,-49.437462845827866
29.041325,1.8833759307859321,-418.24977862900784,1848.9995243357246,-345.57626251234234,1056.8346425636182,2010.9983402471341,1091.9716005488701,5721.285898032376,275.6177470004721,9377.639478067238,10.18483793897042,28.295813303652334,-49.91293630286136
29.042329,1.8841764991026786,-416.3572598281426,1848.9995135578877,-346.81090380963377,1058.4315454797222,2010.9983435518604,1091.5477572439318,5685.633908010427,281.0950072149483,9252.043297064052,10.508941797039308,29.67248849554743,-50.402257369169305
29.043329,1.8849793643857293,-414.4374172987477,1848.9995030038438,-348.01453788863626,1060.0482772663242,2010.9983485926557,1091.141208796988,5646.266472712355,287.5552950826886,9125.186590009995,10.88624143652912,31.017252071182888,-50.904924610216234
29.044335,1.885784519751802,-412.4906852827104,1848.9994926895808,-349.18660527631295,1061.6845509756313,2010.9983554067328,1090.752298355499,5603.231595252334,294.94972619511714,8997.184883440794,11.31574054550545,32.32890360927626,-51.420401427690635
29.045332,1.8865919582529274,-410.5175138314884,1848.999482631236,-350.32656434471386,1063.3400698770997,2010.9983640304388,1090.3813607313193,5556.584331817982,303.2267254008193,8868.150309398348,11.796365446299415,33.606269153618385,-51.94811649531791
29.046333,1.887401672876551,-408.518368455171,1848.9994728450831,-351.4338916422504,1065.0145276434293,2010.9983744991957,1090.0287221221174,5506.3865954900575,312.3321531406874,8738.191346961476,12.32696808529989,34.84820294501791,-52.487464243317895
29.047334,1.8882136565456382,-406.49372975732734,1848.9994633475192,-352.5080822118475,1066.70760854324,2010.9983868474453,1089.694699835767,5452.706941732562,322.2094377759435,8607.412607369468,12.906329316539695,36.05358925761914,-53.037805395192215
29.048335,1.8890279021187832,-404.4440930562284,1848.9994541550534,-353.5486498961165,1068.4189876400965,2010.9984011085896,1089.379602017745,5395.620336624063,332.7997137547424,8475.914661659524,13.533162505064846,37.221344356215766,-53.5984675617403
29.049334,1.8898444023903198,-402.36996799305234,1848.9994452842914,-354.55512762970307,1070.1483309975347,2010.998417314932,1089.083727381577,5335.20790896103,344.0419654737358,8343.79390916867,14.206117471868529,38.3504185920126,-54.168745898281706
29.050339,1.890663150090433,-400.27187812770205,1848.9994367519205,-355.527067718977,1071.895295889736,2010.9984354976202,1088.8073649423773,5271.556687414175,355.87317669813655,8211.142484745737,14.923784796989164,39.43979865411451,-54.747903831943866
29.051337,1.8914841378852736,-398.1503605228794,1848.9994285746973,-356.4640421092377,1073.6595310174835,2010.9984556865845,1088.5507937535297,5204.759323959258,368.22848540766876,8078.0482020889285,15.68470049128031,40.48850999225023,-55.33517386646762
29.05234,1.8923073583770749,-396.0059653170812,1848.999420769432,-357.3656426396161,1075.4406767290238,2010.9984779104786,1088.3142826465712,5134.913804834861,381.04134393674025,7944.594530276939,16.487351040351257,41.49561942273023,-55.92975847225271
29.053344,1.8931328041042712,-393.8392552871964,1848.999413352972,-358.2314812858578,1077.2383652454466,2010.998502196621,1088.098089974335,5062.123150302393,394.24368427556163,7810.860600301333,17.330178816572733,42.46023792475421,-56.5308310694683
29.054343,1.8939604675416193,-391.6508054014009,1848.9994063421875,-359.0611903911747,1079.0522208901746,2010.9985285709352,1087.902463357421,4986.49510449869,407.76608839475455,7676.921238236988,18.21158784728337,43.38152362837642,-57.137537112225694
29.055342,1.8947903411003224,-389.4412023630604,1848.9993997539534,-359.8544228853548,1080.8818603221484,2010.998557057888,1087.7276394340695,4908.141816680201,421.5379634489499,7542.847021605001,19.129949919664703,44.25868498897407,-57.74899528217264
29.056343,1.8956224171281562,-387.21104414637233,1848.9993936051326,-360.61085249231667,1082.7268927722798,2010.998587680432,1087.5738436135152,4827.1795151602,435.48772170457687,7408.704355485222,20.083610995275706,45.09098413600027,-58.36429880038702
29.057344,1.8964566879095963,-384.9609395244876,1848.999387912558,-361.3301739262967,1084.5869202827373,2010.9986204599443,1087.4412898329117,4743.728175237234,449.5429650232806,7274.5555650175975,21.070897899864487,45.877740376052714,-58.98251686691607
29.058346,1.8972931456659525,-382.6915075908722,1848.999382693016,-362.012103076852,1086.4615379486336,2010.9986554161676,1087.3301803179136,4657.911182403805,463.6306737153004,7140.459001085281,22.090125246685073,46.61833382183378,-59.60269623746118
29.059347,1.8981317825555015,-380.40337727467517,1848.9993779632298,-362.6563771828612,1088.3503341616788,2010.9986925671499,1087.24070534702,4569.85499210906,477.67739955707236,7006.469156188661,23.1396025443565,47.31220910958451,-60.22386294644961
29.060348,1.89897259067362,-378.09718685088154,1848.9993737398402,-363.2627549956994,1090.2528908553638,2010.9987319291856,1087.1730430197847,4479.6887873278865,491.60946274479403,6872.636787787619,24.217641433705726,47.95887915832854,-60.84502418516294
29.061349,1.8998155620529245,-375.77358344603647,1848.9993700393873,-363.8310169317578,1092.1687837512325,2010.9987735167567,1087.1273590290084,4387.5441351614,505.3531525312066,6739.009046697761,25.322562992389308,48.55792891514851,-61.46517034280126
29.062355,1.9006606886634112,-373.4332225403291,1848.999366878292,-364.36096521447445,1094.0975826057982,2010.9988173424742,1087.1038064370318,4293.55464366099,518.8349312668133,6605.62960846282,26.452705041760247,49.109019022095694,-62.083277217299056
29.063351,1.9015079624125975,-371.07676746683234,1848.9993642728352,-364.8524240060354,1096.038851457654,2010.9988634170193,1087.1025254562614,4197.855620031166,531.9816415393072,6472.5388059773,27.6064293875381,49.61188933234076,-62.698308401201544
29.064354,1.9023573751456655,-368.7048889086977,1848.9993622391387,-365.3052395288992,1097.992148874317,2010.9989117490866,1087.1236432340625,4100.583731327262,544.7207160758123,6339.773761988682,28.78212892406273,50.06636219588858,-63.30921784583788
29.065354,1.903208918645611,-366.3182643951054,1848.999360793145,-365.7192801772897,1099.9570281983574,2010.9989623453273,1087.167273642162,4001.8766687248476,556.9803900408444,6207.368520456021,29.978234531084354,50.47234542898911,-63.91495260444068
29.066357,1.9040625846333918,-363.91757779677357,1848.999359950599,-366.09443661879425,1101.9330377923525,2010.9990152102916,1087.233517070714,3901.87281640029,568.6899153276559,6075.354176071941,31.193221692366187,50.82983487691957,-64.5144557518752
29.067356,1.9049183647680799,-361.50351882182815,1848.999359727026,-366.4306218861968,1103.9197212822332,2010.9990703463734,1087.3224602271844,3800.7109260274274,579.7797764010194,5943.759001559969,32.42561676724619,51.138916477601114,-65.10666947527902
29.068357,1.9057762506470137,-359.07678251283306,1848.9993601377103,-366.7277714596653,1105.9166177985846,2010.9991277537563,1087.4341759402218,3698.5297978633075,590.1819072053053,5812.608572632434,33.674002850004136,51.39976773373223,-65.6905383261064
29.06936,1.9066362338059557,-356.63806874577125,1848.9993611976736,-366.9858433394056,1107.923262215478,2010.9991874303612,1087.5687229686876,3595.4679693653175,599.8299086032491,5681.925890730816,34.93702515721783,51.6126585038542,-66.26501261981615
29.070361,1.9074983057192505,-354.1880817317608,1848.9993629216553,-367.2048181088821,1109.9391853864224,2010.9992493717907,1087.726145816025,3491.663412250996,608.6592657588656,5551.731503866285,36.21339588962363,51.77795102830414,-66.82905196493189
29.071365,1.9083624577999854,-351.7275295222788,1848.9993653240901,-367.38469898869704,1111.9639143770273,2010.9993135712782,1087.906474550159,3387.2532388790337,616.6075648233704,5422.043626030312,37.50189852168251,51.89609911476948,-67.38162889881838
29.072363,1.9092286814001527,-349.25712351865366,1848.999368419086,-367.5255118812101,1113.9969726939685,2010.9993800196378,1088.1097246291147,3282.373418794382,623.6147082265313,5292.878255751823,38.80139147880735,51.96764642020914,-67.92173260360059
29.073364,1.9100969678108146,-346.77757798657245,1848.9993722204038,-367.62730540596857,1116.0378805098676,2010.9994487052134,1088.3358967325653,3177.1585062413137,629.6231278183702,5164.2492944378055,40.11081116911816,51.993223780807256,-68.44837267233191
29.074365,1.9109673082622711,-344.2896095763382,1848.999376741432,-367.69015092601023,1118.086154883697,2010.9995196138295,1088.584976599511,3071.741379405024,634.5779950485698,5036.168665149649,41.429174343818175,51.97354555871814,-68.96058289272048
29.075363,1.91183969392423,-341.7939368495935,1848.9993819951653,-367.71414256508626,1120.1413099763527,2010.9995927287462,1088.8569348723101,2966.2529920943516,638.427427314639,4908.646432439988,42.75557976769224,51.90940499321476,-69.4574250134017
29.076366,1.9127141159059788,-339.29127981320954,1848.9993879941833,-367.69939721584467,1122.2028572610657,2010.999668030611,1089.1517269472802,2860.8221385251354,641.1226895565327,4781.690923808154,44.08920918847552,51.801668564331585,-69.93799245602881
29.077367,1.9135905652565588,-336.782359461016,1848.9993947506275,-367.64605453900094,1124.2703057283484,2010.9997454974161,1089.4692928321006,2755.575231805733,642.6183901269188,4655.308853231817,45.42932760065701,51.65126939894607,-70.40141393558751
29.078369,1.9144690329649405,-334.2678973240207,1848.9994022761796,-367.5542769535134,1126.3431620852073,2010.9998251044542,1089.8095570102516,2650.636096663765,642.8726699245087,4529.505447104486,46.77528280563484,51.45919977167269,-70.84685695149308
29.079372,1.9153495099602031,-331.7486150297387,1848.9994105820372,-367.42424961776817,1128.4209309483822,2010.9999068242776,1090.1724283127276,2546.1257768864602,641.8473837445001,4404.284572761293,48.12650427633767,51.22650277472171,-71.27353111320146
29.080376,1.9162319871117155,-329.2252338712161,1848.9994196788905,-367.2561804017686,1130.5031150313923,2010.999990626661,1090.5577997972712,2442.162357876029,639.508272776574,4279.6488696167935,49.482501340949256,50.95426325088221,-71.68069126616079
29.081372,1.9171164552293192,-326.69847438630137,1848.9994295769004,-367.0502998503127,1132.5892153252007,2011.0000764785643,1090.965548635383,2338.860804645804,635.8251271680646,4155.599882776439,50.842860707388155,50.643598101407065,-72.06764038685627
29.082375,1.9180029050635128,-324.16905594767854,1848.999440285674,-366.80686113713097,1134.6787312723359,2011.0001643440971,1091.3955360073587,2236.3328155017284,630.7719375685379,4032.138198824422,52.207243357252835,50.295646095683054,-72.43373221937875
29.083374,1.9188913273056387,-321.6376963641403,1848.9994518142414,-366.5261400099451,1136.7711609343405,2011.0002541844858,1091.847607005625,2134.6866915663554,624.3270345823169,3909.263583340024,53.57538084423409,49.91155732241823,-72.77837363020745
29.084377,1.919781712588076,-319.1051114935396,1848.9994641710348,-366.20843472639683,1138.866001152454,2011.0003459580419,1092.3215905466393,2034.0272222085289,616.473215077278,3786.9751195559893,54.94707103689095,49.49248243314093,-73.10102666242938
29.085378,1.9206740514844314,-316.57201486781634,1848.9994773638648,-365.8540659807841,1140.9627477014828,2011.00043962013,1092.8172992916418,1934.4555863416215,607.197854330985,3665.271347448515,56.32217334901677,49.039561838363404,-73.4012102750625
29.086381,1.9215683345097314,-314.0391173304525,1848.9994913998974,-365.4633768215275,1143.0608954368581,2011.0005351231418,1093.3345295765469,1836.0692694477639,596.4930030382616,3544.150402440917,57.70060350278804,48.55391502456882,-73.6785017572131
29.08738,1.922464552120622,-311.5071266866617,1848.9995062856308,-365.03673255927515,1145.15993843492,2011.0006324164722,1093.873061351281,1738.961996076829,584.3554682571952,3423.610152813989,59.08232787088584,48.036630165567274,-73.93253781035808
29.088384,1.9233626947155666,-308.97674736657166,1848.9995220268713,-364.5745206655416,1147.2593701265193,2011.0007314464963,1094.4326581288717,1643.2236774594594,570.7868774333051,3303.6483348475904,60.46735744428531,47.48875420400761,-74.1630152951604
29.089389,1.9242627526350466,-306.448680101605,1848.9995386287112,-364.07715066175695,1149.3586834240596,2011.000832156548,1095.013066944612,1548.9403737659093,555.7937247146557,3184.26268467267,61.85574147283952,46.911283577240475,-74.36969164207916
29.090387,1.925164716161763,-303.9236216142163,1848.999556095507,-363.54505399858755,1151.4573708421474,2011.0009344869056,1095.6140183256261,1456.1942704396054,539.3873988546503,3065.4510657936717,63.24756082645855,46.305155755570986,-74.55238492782549
29.091386,1.9260685755208418,-301.4022643210869,1848.9995744308574,-362.97868392537407,1153.5549246120524,2011.0010383747747,1096.2352262711709,1365.0636679384977,521.5841920944864,2947.2115912507634,64.64292112578484,45.6712417495591,-74.7109736225965
29.092389,1.9269743208800418,-298.88529604983154,1848.9995936375801,-362.3785153495143,1155.6508367902154,2011.0011437542778,1096.876388244017,1275.6229841303127,502.4052895236142,2829.542739431495,66.04194569271843,45.01033972627724,-74.84539601606767
29.09339,1.9278819423499638,-296.37339976921743,1848.9996137176915,-361.74504468560235,1157.744599361075,2011.0012505564443,1097.53718517326,1187.9427685109656,481.8767385332201,2712.443462612898,67.4447683725449,44.32316985302197,-74.9556493333126
29.094391,1.9287914299842626,-293.86725333284744,1848.999634672384,-361.07878969412,1159.8357043345145,2011.0013587092042,1098.217281468912,1102.089727349161,460.0293981033536,2595.9132874164325,68.85152628017235,43.61037046224512,-75.04178855503106
29.095393,1.9297027737798609,-291.3675292362126,1848.9996565020058,-360.3802893094596,1161.9236438382572,2011.0014681373839,1098.916325048642,1018.1267588046629,436.8988677969701,2479.952406486348,70.26235252264794,42.87249560484105,-75.10392495957178
29.096394,1.9306159636771634,-288.8748943869703,1848.9996792060394,-359.65010345704246,1164.0079102055704,2011.001578762706,1099.6339473770233,936.1129970226614,412.52539647172085,2364.5617608522266,71.67736894854816,42.11001403148363,-75.14222440716347
29.097394,1.9315309895602757,-286.39000988826376,1848.9997027830816,-358.8888128592814,1166.087996058656,2011.0016905037926,1100.3697635176609,856.1038641718135,386.9537708606544,2249.7431126030383,73.0966789720553,41.32330961414341,-75.15690538947769
29.098401,1.9324478412572241,-283.9135308348528,1848.999727230823,-358.0970188301234,1168.1633943881359,2011.0018032761707,1101.1233721985716,778.1511293686344,360.2331843140955,2135.499107677226,74.5203605156816,40.51268319267358,-75.14823687010087
29.099398,1.9333665085401774,-281.4461061217878,1848.9997525460278,-357.2753430578918,1170.2335986290589,2011.0019169922823,1101.8943558911947,702.3029734157531,332.417086135037,2021.833328755993,75.94845911099287,39.67835580474509,-75.11653594364446
29.100399,1.9342869811256695,-278.9883782653205,1848.999778724515,-356.42442737613834,1172.2981027338717,2011.0020315614963,1102.6822809034052,628.6040582760266,303.56301207753927,1908.7503384310492,77.38098119184178,38.82047323173493,-75.06216534308437
29.1014,1.9352092486748282,-276.5409832357085,1848.9998057611404,-355.54493352220055,1174.3564012428171,2011.0021468901239,1103.486697486905,557.095600208419,273.73239670978285,1796.2557130003252,78.817887610081,37.93911176880323,-74.98553082649464
29.102401,1.9361333007936008,-274.1045503015393,1848.9998336497786,-354.63754288315295,1176.4079893522396,2011.0022628814393,1104.307139959358,487.81544550448183,242.99036846817168,1684.3560674228338,80.25908739977709,37.03428510489401,-74.8870784754764
29.1034,1.9370591270329858,-271.6797018851656,1848.9998623833046,-353.70295622883,1178.4523629812861,2011.0023794357019,1105.1431268416186,420.7981477857902,211.40552834379648,1573.0590721341082,81.70443181278937,36.10595217865148,-74.76729193799422
29.104402,1.9379867168892657,-269.2670534288162,1848.9998919535758,-352.741893431598,1180.4890188375111,2011.0024964501815,1105.9941610103988,356.07504585257703,179.04971324553702,1462.3734625827692,83.15370864656256,35.154025860501584,-74.62668964777957
29.105405,1.938916059804242,-266.86721327091766,1848.9999223514144,-351.75509317254705,1182.5174544818956,2011.0026138191886,1106.859729866697,293.6743411125217,145.9977451738459,1352.3090424918992,84.60663688427842,34.17838230081642,-74.46582205086277
29.106406,1.9398471451654717,-264.48078253213833,1848.9999535665931,-350.74331263377866,1184.5371683938044,2011.0027314341066,1107.7393055202992,233.62117366703467,112.32716741575724,1242.876681970015,86.06286166770833,33.17887078025687,-74.28526886720867
29.107409,1.9407799623065045,-262.10835501064116,1848.9999855878198,-349.7073271764671,1186.5476600364125,2011.0028491834316,1108.6323449906465,175.9376961913607,78.11796903610956,1134.0883116892105,87.52194962330987,32.15532390110196,-74.08563641197823
29.108408,1.9417145005071255,-259.7505170860122,1849.0000184027215,-348.6479300043793,1188.5484299231287,2011.002966952812,1109.538290424344,120.64314481501995,43.45229899443973,1025.9569144071195,88.98338456142235,31.107567966091526,-73.86755499668247
29.109408,1.9426507489935954,-257.4078476313119,1849.0000519978332,-347.5659318125478,1190.5389796855566,2011.0030846250927,1110.456569329574,67.7539062907209,8.414171263701311,918.4965151315317,90.4465635665721,30.035433401452465,-73.63167642549281
29.11041,1.9435886969388976,-255.08091793267954,1849.000086358583,-346.4621604208019,1192.518812143524,2011.0032020803635,1111.386594827649,17.283580832448763,-26.910837632498218,811.722171211511,91.9107934945283,28.938765091034753,-73.37867159646319
29.111409,1.944528333462985,-252.77029161590798,1849.0001214692795,-345.3374603918758,1194.4874313777175,2011.0033191960117,1112.3277659219282,-30.756959894375008,-62.43589721241544,705.6499635890285,93.37528788999064,27.817432497898523,-73.10922821196634
29.112412,1.945469647633028,-250.4765245793926,1849.0001573130987,-344.1926926338246,1196.444342805453,2011.00343584678,1113.279467784295,-76.35952003829716,-98.07323627748119,600.2969903644971,94.8391643386189,26.671339458629184,-72.8240485980497
29.113412,1.9464126284636638,-248.20016493284854,1849.0001938720745,-343.02873398649825,1198.389053260109,2011.0035519048258,1114.2410720593778,-119.51853237689637,-133.7344592989505,495.68136372247267,96.30144226882608,25.500433544788965,-72.52384762939876
29.114415,1.9473572649172493,-245.94175294118327,1849.0002311270894,-341.8464767918379,1200.321071074736,2011.003667239789,1115.2119371866636,-160.23101686178936,-169.33086443199983,391.82221113373953,97.76104122164162,24.304714895432358,-72.20935075540639
29.115413,1.948303545904116,-243.70182097290527,1849.0002690578651,-340.6468284477785,1202.2399061703577,2011.0037817188593,1116.1914087406456,-198.49654496369953,-204.77376163429034,288.73968159951573,99.21677960961219,23.084244434289488,-71.88129212313716
29.116421,1.9492514602828286,-241.48089345244696,1849.000307642955,-339.43071094556177,1204.1450701494582,2011.0038952068496,1117.1788197891108,-234.3172097846108,-239.9747893712889,186.45495753460722,100.66737398681224,21.839151394837838,-71.54041279406579
29.117418,1.9502009968604426,-239.2794868157787,1849.0003468597363,-338.1990603902852,1206.0360763951446,2011.0040075662735,1118.1734912696513,-267.6976018103529,-274.84622840692776,84.99027270132648,102.11143885096288,20.569640086043396,-71.18745905274325
29.11842,1.951152144392763,-237.09810946869123,1849.0003866844056,-336.95282650453214,1207.9124401764532,2011.004118657426,1119.174732384459,-298.6447900938489,-309.30131120597076,-15.63106359172956,103.5474869955482,19.275995841254463,-70.8231808066168
29.119421,1.9521048915846069,-234.9372617471279,1849.0004270919737,-335.6929721149538,1209.7736787602566,2011.004228338469,1120.1818410134345,-327.16830858683954,-343.2545255143001,-115.38463601737982,104.97393042531459,17.958590102971375,-70.44833007691916
29.120421,1.953059227090067,-232.79743587895211,1849.0004680562608,-334.4204726216972,1211.6193115302087,2011.004336465521,1121.1941041456143,-353.28014727566887,-376.62191073594806,-214.24488668188695,106.38908184359025,16.617884607505633,-70.06365958082772
29.121423,1.9540151395127785,-230.6791159465433,1849.0005095498948,-333.1363154505982,1213.4488601131413,2011.0044428927529,1122.2107983288938,-376.9947477237549,-409.32134579170673,-312.18507289904124,107.79115671539174,15.254434646137204,-69.6699214050568
29.122426,1.9549726174061888,-228.5827778496248,1849.0005515443092,-331.84149948808636,1215.2618485133103,2011.0045474724845,1123.2311901379906,-398.32900257853055,-441.2728272237642,-409.1772198694007,109.17827590677598,13.868891392913067,-69.26786577072332
29.123425,1.9559316492738257,-226.50888926773732,1849.000594009741,-330.53703449877526,1217.0578032548615,2011.0046500552878,1124.2545366605607,-417.3022585625642,-472.39873640351556,-505.19206901166655,110.54846889833038,12.462003302784643,-68.85823988864101
29.12443,1.9568922235695687,-224.45790962178552,1849.0006369152327,-329.2239405257421,1218.8362535328652,2011.0047504900929,1125.2800860013551,-433.93632243575775,-502.624094804057,-600.19902283029,111.8996775686792,11.03461659638678,-68.44178690303119
29.125435,1.9578543286979235,-222.43029003410084,1849.0006802286346,-327.9032472735289,1220.5967313732374,2011.0048486242993,1126.3070778042681,-448.25546938645596,-531.8768064126858,-694.1660873106478,113.22976054180874,9.58767485895793,-68.01924491997256
29.126432,1.9588179530142973,-220.42647328648155,1849.0007239166064,-326.5759934739309,1222.338771801837,2011.0049443038904,1127.3347437920927,-460.2864532828145,-560.0878864792517,-787.0598129094888,114.53649808933483,8.122217790864761,-67.59134611485928
29.127431,1.959783084825276,-218.4468937756893,1849.0007679446228,-325.2432262346693,1224.0619130229995,2011.0050373735528,1128.3623083237694,-470.0585181913271,-587.1916759203802,-878.8452352545024,115.81759757522828,6.63937915630072,-67.15881591087856
29.128432,1.9607497123889035,-216.49197746590409,1849.0008122769789,-323.90600037107987,1225.7656966077368,2011.0051276767997,1129.3889889688821,-477.6034105472188,-613.1260408243181,-969.4858166844149,117.07069942590327,5.140383984992654,-66.72237221835098
29.129434,1.9617178239149613,-214.5621418376623,1849.0008568767955,-322.56537772098335,1227.449667691797,2011.0052150560994,1130.413997099121,-482.9553913422608,-637.832556623329,-1058.9433897519746,118.29338360323887,3.6265450886243333,-66.28272472308976
29.130437,1.9626874075652514,-212.65779583282756,1849.0009017060295,-321.22242644293783,1229.113375183743,2011.005299353006,1131.4365384964035,-486.1512476804881,-661.2566766172912,-1147.1781037784453,119.48317655259048,2.099258958391258,-65.84057421106499
29.131436,1.9636584514538815,-210.77933979517152,1849.0009467254815,-319.8782202981098,1230.7563719831712,2011.005380408297,1132.455813977318,-487.23030304221663,-683.3478846406748,-1234.1483754915018,120.63755859271735,0.560001112122223,-65.39661191671807
29.132438,1.9646309436475522,-208.9271654061703,1849.0009918948083,-318.5338379160334,1232.3782152091537,2011.0054580621133,1133.4710200335194,-486.2344255921256,-704.0598317629494,-1319.8108447003558,121.75397171026164,-0.989679041373292,-64.95151888314834
29.133438,1.9656048721658448,-207.10165561565321,1849.001037172535,-317.19036204456313,1233.9784664389479,2011.0055321541047,1134.4813494876742,-483.2080338677584,-723.3504569976169,-1404.1203358643659,122.82982771812891,-2.548163756452044,-64.50596532390335
29.134455,1.9665802249815099,-205.30318456697302,1849.00108251607,-315.84887878435995,1235.556691956973,2011.0056025235779,1135.4859921645234,-478.19809918959464,-741.1820920660747,-1487.029826296513,123.86251673472384,-4.113772864449988,-64.06060997813364
29.13545,1.9675569900207592,-203.53211751640188,1849.0011278817194,-314.5104768082865,1237.1124630140132,2011.0056690096478,1136.4841355765984,-471.2541441412671,-757.5215503189679,-1568.4904216138286,124.84941593924943,-5.684769994967458,-63.616099453344
29.136452,1.96853515516356,-201.78881074649172,1849.001173224705,-313.1762465661216,1238.6453560965626,2011.005731451394,1137.474965624083,-462.42823647675056,-772.3401999601864,-1648.4513389066565,125.78789855696287,-7.259369059202006,-63.173067552738004
29.137453,1.9695147082439282,-200.07361147317525,1849.0012184991813,-311.8472794750415,1240.1549532061872,2011.0057896880196,1138.4576673082993,-451.77497781900865,-785.6140217486172,-1726.8598979515184,126.67534302747988,-8.835740955963379,-62.73213458699963
29.138455,1.9704956370502262,-198.38685774642113,1849.0012636582553,-310.5246670963492,1241.6408421487426,2011.0058435590151,1139.4314254582464,-439.35148652100816,-797.3236513719785,-1803.6615206426638,127.50914230931411,-10.412020465925988,-62.293906673071795
29.139455,1.9714779293254603,-196.72887834429412,1849.0013086540096,-309.2095002989705,1243.10261683325,2011.005892904325,1140.3954254696073,-425.21737406553575,-807.4544066973316,-1878.799738669634,128.2867132750219,-11.986313303292011,-61.85897502487541
29.140455,1.9724615727675794,-195.09999266030823,1849.0013534375232,-307.90286841026773,1244.5398775802005,2011.0059375645185,1141.3488540556061,-409.4347143859437,-815.9963001057652,-1952.216209327135,129.00550615339364,-13.556703296203722,-61.42791524278591
29.141458,1.973446555029779,-193.500510583997,1849.0013979588978,-306.60585835475763,1245.9522314390222,2011.005977380965,1142.2909000090644,-392.0680054972185,-822.9440361155877,-2023.8507392141657,129.66301397764542,-15.121259667788783,-61.001286609887565
29.14246,1.9744328637208044,-191.93073237466209,1849.0014421672824,-305.3195537813524,1247.339292514408,2011.006012196014,1143.220754974982,-373.18412283702406,-828.2969944904689,-2093.6413154666307,130.256782000938,-16.678044388544574,-60.57963140347018
29.143462,1.975420486405255,-190.39094852829632,1849.0014860109015,-304.0450341797746,1248.7006823011607,2011.0060418531727,1144.1376142329302,-352.85226373089336,-832.0591990178592,-2161.5241440760724,130.78441704233944,-18.225119567961535,-60.16347422995972
29.144466,1.9764094106038907,-188.88143963771367,1849.0015294370826,-302.7833739868311,1250.0360300271755,2011.0060661972936,1145.040677488525,-331.1438824155506,-834.2392721305126,-2227.4336947801526,131.24359672749944,-19.76055484933266,-59.75332139063967
29.145462,1.9773996237939397,-187.40247624595432,1849.0015723922882,-301.53564168326193,1251.3449730041402,2011.0060850747602,1145.9291496732023,-308.1326150801375,-834.8503755319573,-2291.302751970097,131.6320785891707,-21.282434767578714,-59.34966028432409
29.146465,1.9783911134094092,-185.95431869307058,1849.0016148221487,-300.30289888191413,1252.6271569854935,2011.0060983336787,1146.8022417514935,-283.89419441727387,-833.9101369769573,-2353.0624710467373,131.94770899379228,-22.788866026955265,-58.952958851778455
29.147464,1.9793838668413961,-184.53721695643432,1849.001656671497,-299.0861994080234,1253.8822365311455,2011.0061058240724,1147.6591715349698,-258.50635321464654,-831.4405633516872,-2412.642439668646,132.18843186197043,-24.277984654738233,-58.56366506531155
29.148466,1.9803778714384,-183.15141048474365,1849.0016978844026,-297.88658837241786,1255.1098753784327,2011.0061073980758,1148.499164501993,-232.04871656341894,-827.467940196507,-2469.970743370393,132.3522971529883,-25.747962988456194,-58.18220646570882
29.149466,1.9813731145066378,-181.7971280259422,1849.0017384042096,-296.70510123849306,1256.3097468187464,2011.006102910135,1149.3214546223858,-204.60268231249816,-822.0227178180374,-2524.9740350826796,132.43746908647896,-27.197016457006768,-57.808989747587106
29.150472,1.9823695833103603,-180.47458744929895,1849.0017781735762,-295.5427628838352,1257.4815340792495,2011.0060922172095,1150.1252851861138,-176.25128945795873,-815.1393841479363,-2577.5776081551903,132.4422340779589,-28.62341011895451,-57.444400393247214
29.151471,1.983367265072169,-179.18399556193052,1849.0018171345148,-294.40058665740366,1258.6249307090657,2011.006075178975,1150.9099096350403,-147.0790742251066,-806.8563245246422,-2627.705472563793,132.36500836865918,-30.02546492397985,-57.088802354085544
29.152474,1.9843661469733354,-177.92554792007826,1849.0018552284348,-293.27957343321054,1259.739640969291,2011.0060516580304,1151.6745923967908,-117.1719136771204,-797.2156686020686,-2675.2804340729317,132.20434533354455,-31.40156366602856,-56.7425377775689
29.153479,1.9853662161541203,-176.69942863548687,1849.0018923961854,-292.1807106614659,1260.825380226153,2011.006021520108,1152.4186097197423,-86.61685676907318,-786.2631246258411,-2720.224176218686,131.95894245416503,-32.75015659952377,-56.405926776733054
29.154477,1.9863674597140977,-175.50581017726157,1849.0019285781038,-291.1049714181844,1261.8818753466055,2011.0059846342835,1153.1412505081187,-55.501942859255756,-774.0478013626512,-2762.457345075343,131.6276479447902,-34.06976669305887,-56.07926723824268
29.155476,1.9873698647124762,-174.3448531696107,1849.0019637140588,-290.05331345427743,1262.90886509562,2011.0059408731865,1153.8418171561498,-23.916007790653524,-760.6220180210026,-2801.899636865709,131.20946702112386,-35.35899449800567,-55.76283466434315
29.156477,1.9883734181684276,-173.21670618591187,1849.0019977435024,-289.0266782451832,1263.9061005344056,2011.005890113215,1154.5196263802338,8.051522236473112,-746.0411025616664,-2838.4698885700673,130.70356780099766,-36.616522612082775,-55.456882043588024
29.157478,1.9893781070614114,-172.12150553956783,1849.0020306055187,-288.0259900421113,1264.8733454187757,2011.0058322347502,1155.1740100480238,40.31084866558659,-730.3631788634782,-2872.0861717778607,130.10928682616446,-37.84111971985128,-55.16163974505535
29.15848,1.9903839183315022,-171.05937507214648,1849.0020622388759,-287.0521549260048,1265.8103765968642,2011.0057671223728,1155.8043160033471,72.77203000375054,-713.6489432847301,-2902.6658901071883,129.4261341939506,-39.03164419321313,-54.8773154308622
29.159483,1.991390838879721,-170.0304259393238,1849.0020925820784,-286.10605986534307,1266.7169844053763,2011.005694665081,1156.4099088858618,105.3452220829839,-695.9614312419463,-2930.125880587798,128.65379828716044,-40.18704723533977,-54.60409398213288
29.160482,1.9923988555683654,-169.03475639517234,1849.0021215734225,-285.1885717789293,1267.5929730635542,2011.005614756508,1156.990170944334,137.94092846168655,-677.3657745152269,-2954.3825194616807,127.79215009025658,-41.30637555134395,-54.342137434192416
29.161482,1.9934079552213422,-168.0724515753581,1849.0021491510545,-284.3005366048226,1268.4381610640196,2011.005527295142,1157.5445028424208,170.47026014167972,-657.9289500806215,-2975.3518329005447,126.841247079501,-42.38877352889692,-54.091584917667916
29.16249,1.9944181246245007,-167.14358327982893,1849.0021752530267,-283.4427783765903,1269.2523815596446,2011.0054321845435,1158.0723244558208,202.84520365657693,-637.7195213625689,-2992.949613170859,125.80133667449526,-43.433484912300145,-53.85255260335972
29.163485,1.995429350525968,-166.24820975559558,1849.0021998173572,-282.6160983080717,1270.035482745587,2011.0053293335684,1158.573075659655,234.97889647272515,-616.8073728904967,-3007.09154079491,124.67285923848681,-44.439853954455245,-53.625133650114776
29.164488,1.996441619636485,-165.38637548022254,1849.0022227820912,-281.82127388785364,1270.7873282356143,2011.005218656587,1159.0462171049244,266.7859085365974,-595.2634394305934,-3017.6933132607187,123.45645061495763,-45.407326032763955,-53.409398156398176
29.16549,1.997454918629744,-164.55811094666333,1849.0022440853647,-281.05905798467234,1271.5077974318328,2011.005100073701,1159.4912309828867,298.18252870365296,-573.1594307443969,-3024.670780825455,122.15294418836486,-46.335447717125454,-53.205393117723474
29.166492,1.9984692341427281,-163.763432450087,1849.0022636654687,-280.3301779649627,1272.1967858869405,2011.004973510964,1159.9076217761954,329.0870546944054,-550.5675531985509,-3027.940089937016,120.76337245746048,-47.223866280770906,-53.01314239350558
29.167491,1.999484552776052,-163.00234187735592,1849.002281460914,-279.635334823785,1272.8542056581268,2011.0048389006004,1160.2949169956557,359.4200851447069,-527.5602295137106,-3027.4178347678444,119.28896811039685,-48.07232864762748,-52.83264668820339
29.168493,2.000500861094304,-162.27482649982335,1849.0022974104988,-278.97520233036215,1273.479985651751,2011.0046961812238,1160.6526679014542,389.1048122499345,-504.20981799416245,-3023.021217315124,117.7311645918959,-48.88067977313646,-52.66388355278656
29.169495,2.00151814562639,-161.58085877012715,1849.0023114533772,-278.350426189461,1274.0740719579387,2011.0045452980528,1160.9804502077238,418.06731344752205,-480.5883326222542,-3014.6682164735466,116.09159615422578,-49.648860458889565,-52.50680741352148
29.170498,2.0025363928658786,-160.92039612365932,1849.0023235291258,-277.76162321985277,1274.6364281742426,2011.0043862031278,1161.2778647693276,446.2368405395744,-456.7671654320671,-3002.277766432171,114.37209738556395,-50.37690460524634,-52.36134963569676
29.171503,2.0035555892713464,-160.29338078539456,1849.0023335778162,-277.2093805510818,1275.1670357175208,2011.004218855525,1161.5445382497307,473.54610462740516,-432.81681259367616,-2985.76994468667,112.57470221134326,-51.06493591055014,-52.227418630089474
29.1725,2.0045757212667263,-159.6997395827619,1849.0023415400858,-276.694254839768,1275.6658941231944,2011.0040432215699,1161.7801237688593,499.9315552129271,-408.8066056418804,-2965.066169893514,110.70164236618403,-51.71316403084907,-52.10490000972207
29.173502,2.005596775241654,-159.13938376524231,1849.002347357212,-276.21677150666153,1276.1330213310525,2011.003859275044,1161.9843015298386,525.3336518180406,-384.80444927095203,-2940.0894097242603,108.75534533590795,-52.321880220060514,-51.99365680391238
29.174502,2.006618737551819,-158.6122088313734,1849.0023509711857,-275.7774239956594,1276.5684539567867,2011.0036669973958,1162.156779423529,549.6971264825687,-360.8765670899765,-2910.7643988066193,106.73843177091138,-52.891452477000485,-51.89352973593163
29.175503,2.0076415945193142,-158.11809436383967,1849.0023523247867,-275.376673055985,1276.9722475484543,2011.0034663779431,1162.2972936097908,572.971235523834,-337.08725669257154,-2877.0178667646487,104.65371237390737,-53.422320232332154,-51.80433756983953
29.176505,2.008665332432989,-157.65690387332097,1849.0023513616609,-275.0149460487174,1277.3444768270892,2011.0032574140776,1162.4056090744336,595.109998976493,-313.49865534150564,-2838.7787762930616,102.50418426672498,-53.9149886150302,-51.725877531246546
29.177506,2.0096899375488015,-157.2284846517654,1849.0023480263983,-274.6926362788413,1277.6852359107017,2011.0030401114616,1162.481520160839,616.072426179494,-290.1705175044525,-2795.978571119898,100.29302684238881,-54.3700223441265,-51.657925805828526
29.17851,2.0107153960901756,-156.83266763574406,1849.0023422646111,-274.41010235397385,1277.994638520937,2011.0028144842242,1162.5248510752638,635.8227260377382,-267.1600054031659,-2748.5514336272163,98.02359711002893,-54.7880392970205,-51.60023811839187
29.179509,2.011741694248356,-156.4692672805342,1849.002334023013,-274.16766757089835,1278.272818171679,2011.0025805551538,1162.5354563648698,654.3305005588697,-244.5214936557867,-2696.434551810586,95.69942454131262,-55.169703810299694,-51.55255039415858
29.180514,2.012768818182764,-156.13808144556583,1849.0023232494989,-273.9656193310153,1278.5199283389115,2011.0023383558862,1162.5132213675408,671.5709203499939,-222.30638900153042,-2639.568395164606,93.32420542809797,-55.51571977267976,-51.51457950268678
29.181509,2.013796754021356,-155.83889129185226,1849.0023098932245,-273.8042085857954,1278.73614261117,2011.0020879270885,1162.4580626325828,687.5248808540567,-200.56296599918565,-2577.8969989831558,90.90179676185444,-55.82682357232792,-51.48602408347761
29.182513,2.014825487860982,-155.57146119201116,1849.0022939046887,-273.6836493132911,1278.9216548199422,2011.0018293186374,1162.3699283114317,702.1791382098261,-179.33621948628675,-2511.3682564594415,88.43620964598392,-56.10377696261356,-51.46656545090976
29.183512,2.015855005767747,-155.3355386534663,1849.0022752358157,-273.6041180267362,1279.0766791494013,2011.0015625897956,1162.248798517524,715.5264237315233,-158.667734475351,-2439.934217862294,85.93160225243616,-56.347359911400176,-51.45586857478362
29.184515,2.016885293777373,-155.13085425540444,1849.0022538400365,-273.56575331623054,1279.2014502248892,2011.0012878093792,1162.0946856545245,727.5655361229059,-138.59557404841186,-2363.551395952057,83.39227233394436,-56.55836349948739,-51.45358313154962
29.185515,2.0179163378955596,-154.95712160004246,1849.002229672374,-273.5686554244755,1279.2962231795907,2011.001005055921,1161.907634712143,738.301410664819,-119.15418569272128,-2282.1810766827025,80.82264930282211,-56.73758293374986,-51.459344620290125
29.186518,2.0189481240983493,-154.8140372787419,1849.002202689526,-273.6128858574909,1279.3612736988848,2011.0007144178296,1161.6877235288123,747.7451647438339,-100.37432640055052,-2195.7896341178193,78.22728588653672,-56.885810739677126,-51.47277553666143
29.187518,2.0199806383324925,-154.70128085348722,1849.0021728499498,-273.6984670312067,1279.396898041884,2011.0004159935404,1161.4350630205497,755.9141192215822,-82.28300673598552,-2104.348848368538,75.61084936934171,-57.00383019610365,-51.49348659722367
29.188521,2.0210138665158133,-154.61851485422207,1849.002140113944,-273.8253819547831,1279.4034130397117,2011.0001098916625,1161.1497973753583,762.8317952789815,-64.90345395270721,-2007.8362252431646,72.97811242856663,-57.09240907194263,-51.5210780059552
29.189527,2.0220477945375745,-154.5653847925154,1849.0021044437347,-273.9935739514725,1279.3811560700995,2010.999796231118,1160.832104212572,768.5278865059414,-48.255094129902574,-1906.2353161833407,70.33394357402271,-57.152293721109054,-51.555140754354845
29.190525,2.0230824082588463,-154.54151919200606,1849.0020658035585,-274.20294641779304,1279.3304850079219,2010.9994751412721,1160.48219470659,773.0382061442443,-32.35355317949019,-1799.5360369516575,67.68329719915677,-57.1842035880944,-51.595257946367056
29.191524,2.0241176935128737,-154.54652963604988,1849.0020241597479,-274.4533626217398,1279.2517781513195,2010.999146762061,1160.1003136744932,776.404609527714,-17.210676467687552,-1687.7349834322738,65.03120325275835,-57.18882617322296,-51.64100613934855
29.192526,2.025153636105448,-154.58001083296767,1849.001979480816,-274.74464554071386,1279.1454341230992,2010.9988112441067,1159.686739627077,778.6748918978722,-2.8345666887432106,-1570.8357428104262,62.382756540149465,-57.16681250349089,-51.69195669234962
29.193525,2.0261902218152756,-154.64154069926693,1849.001931737542,-275.0765777398023,1279.0118717471375,2010.9984687488266,1159.2417847828874,779.9026619035453,10.770360470281242,-1448.8491983100014,59.743105662890876,-57.118773151652164,-51.74767711301832
29.194529,2.027227436394354,-154.7306804611824,1849.0018809030537,-275.44890129099593,1278.851529899556,2010.998119448536,1158.7657950448959,780.147191218017,23.603303426172467,-1321.7938255919657,57.117441606106254,-57.0452748421378,-51.807732394383045
29.19553,2.0282652655683404,-154.84697477485267,1849.001826952912,-275.8613177338802,1278.6648673344744,2010.997763526543,1158.2591499395014,779.4732408264314,35.666985192979205,-1189.6959788520212,54.51098598256786,-56.94683767677369,-51.87168633261236
29.196533,2.0293036950369263,-154.9899518654209,1849.0017698651957,-276.3134880782847,1278.4523624841947,2010.99740117723,1157.7222625176012,777.9508646486589,46.967547981285115,-1052.5901646051639,51.928978942793535,-56.82393300578083,-51.93910281666784
29.197534,2.0303427104742124,-155.1591236853186,1849.0017096205831,-276.8050328493239,1278.2145132337073,2010.997032606131,1157.155579217523,775.6551912682993,57.51443267745799,-910.5193011101388,49.3766667608293,-56.67698196038041,-52.009547080728446
29.198541,2.0313822975290834,-155.35398609195934,1849.0016462024362,-277.33553217520836,1277.9518366694522,2010.9966580299977,1156.5595796896657,772.6661846362337,67.32024403412925,-763.534961370648,46.85928910642697,-56.50635465311222,-52.08258691055688
29.199538,2.032422441825583,-155.57401904503885,1849.0015795968814,-277.9045259181518,1277.6648688023117,2010.996277676856,1155.9347765827501,769.0683847059958,76.40060245380901,-611.6975976552037,44.382066015972796,-56.31237004169436,-52.15779379570159
29.200538,2.0334631289632914,-155.81868682360596,1849.001509792892,-278.5115138486418,1277.3541642648538,2010.995891786051,1155.281715291634,764.9506290365716,84.77398329319087,-455.07674550595215,41.950184576376266,-56.09529644305487,-52.23474402057505
29.201539,2.0345043445177016,-156.08743826303524,1849.001436782368,-279.15595586328527,1277.0202959828864,2010.9955006082853,1154.6009736667022,760.4057564643155,92.46154465749878,-293.7512052600879,39.56878533770293,-55.85535267703032,-52.31301968893214
29.202542,2.0355460740405995,-156.37970701199995,1849.0013605602146,-279.8372722463833,1276.6638548214248,2010.9951044056431,1153.8931616848981,755.530293998272,99.48694469271231,-127.80919918621056,37.24294847156147,-55.592709814641445,-52.39220967795956
29.203541,2.036588303060443,-156.69491180950976,1849.0012811244217,-280.5548439753294,1276.2854492052222,2010.994703451606,1153.1589210825202,750.4241281322155,105.87614941851247,42.65149755791827,34.97767969356282,-55.30749350365424,-52.471910519974834
29.204545,2.0376310170827416,-157.0324567820437,1849.0011984761397,-281.3080130698679,1275.8857047140527,2010.9942980310568,1152.3989249499589,745.190161793361,111.65723217558333,217.52345381063128,32.77789597013731,-54.999786843488565,-52.551727211623195
29.205546,2.0386742015904384,-157.3917317607751,1849.001112619758,-282.0960829851867,1275.4652636529777,2010.9938884402734,1151.613877288611,739.933958164183,116.86016578653494,396.68950864516853,30.648411032947195,-54.669633781147866,-52.63127395247096
29.206548,2.039717842044293,-157.7721126188495,1849.0010235629773,-282.9183190487597,1275.0247845978768,2010.9934749869087,1150.804512530268,734.7633726228478,121.51660854957242,580.0227282940964,28.593920727900414,-54.31704299840362,-52.710174816806365
29.207552,2.0407619238832617,-158.1729616286431,1849.0009313168814,-283.7739489407941,1274.5649419165634,2010.9930579899626,1149.9715950193263,729.7881740523267,125.65968519834155,767.3863948884285,26.61898822992785,-53.941992257191366,-52.78806436374905
29.20855,2.0418064325248833,-158.59362783889318,1849.0008358960088,-284.6621632180724,1274.0864252658532,2010.992637779739,1149.1159184582361,725.1196567713218,129.3237639712351,958.6340279138606,24.728029159088276,-53.54443316510912,-52.8645881909223
29.209551,2.0428513533656614,-159.03344747155643,1849.0007373184228,-285.5821158809183,1273.5899390649952,2010.9922146977913,1148.2383053166568,720.8702443445474,132.54423094037216,1153.6094390379342,22.92529663853382,-53.12429631675888,-52.93940343591462
29.210553,2.043896671781449,-159.49174433821608,1849.0006356057795,-286.5329249829529,1273.0762019459173,2010.9917890968543,1147.3396062048432,717.1530865381303,135.35726275569985,1352.1468206947113,21.214866340940006,-52.68149676025267,-53.012179228101886
29.211553,2.0449423731278307,-159.96783027582245,1849.0005307833928,-287.5136732832419,1272.5459461807793,2010.991361340765,1146.420699211847,714.0816506994654,137.79959896367805,1554.0708685322816,19.6006215775848,-52.21593973201465,-53.082597091875165
29.212554,2.0459884427405144,-160.46100560151604,1849.0004228803002,-288.523408940375,1271.999917087363,2010.990931804368,1145.4824892091592,711.7693088601407,139.9083150623727,1759.1969375386238,18.086238493185924,-51.72752659726803,-53.15035130136804
29.213556,2.0470348659357134,-160.97055958624716,1849.0003119293235,-289.5611462479529,1271.4388724128714,2010.9905008734083,1144.525907120477,710.3289218848053,141.7205974543934,1967.3312313687509,16.67517143887889,-51.21616092855218,-53.21514918641573
29.214558,2.0480816280105345,-161.49577094687191,1849.0001979671272,-290.6258664108964,1270.8635816967408,2010.9900689444119,1143.5519091583285,709.8724220164673,143.27352145440935,2178.2710241062687,15.370638603865125,-50.68175465079329,-53.27671138950066
29.215556,2.049128714243366,-162.0359083563691,1849.0000810342756,-291.7165183619318,1270.2748256131092,2010.989636424554,1142.5614760283372,710.5103951975482,144.60383349725703,2391.804913410917,14.17560799210911,-50.124234179536394,-53.334772073618595
29.216564,2.050176109894266,-162.5902309717893,1848.9999611752876,-292.8320196175444,1269.6733952936295,2010.9892037315092,1141.5556121019665,712.3516645737094,145.74773867433137,2607.7131037358004,13.092783833724269,-49.543546479390514,-53.38907908114503
29.217561,2.0512238002053507,-163.157988979513,1848.9998384386884,-293.9712571726322,1269.0600916313456,2010.9887712932893,1140.5353445586288,715.5028766117302,146.74069469877324,2825.76771804994,12.124593521827816,-48.93966497246858,-53.4393940437521
29.218562,2.052271770401181,-163.73842415736115,1848.9997128770576,-295.1330884330309,1268.4357245663948,2010.988339548068,1139.5017224981034,720.0680912815318,147.61721336307085,3045.7331362803434,11.273175165330107,-48.312595231112795,-53.48549244320439
29.219562,2.053320005689155,-164.33077045306763,1848.999584547076,-296.31634218502114,1267.8011123543333,2010.9879089439917,1138.4558160242518,726.1483777640963,148.41067050559317,3267.3663585006348,10.540365846800963,-47.66238039481841,-53.527163622591296
29.220565,2.0543684912599,-164.93425457858956,1848.9994535095677,-297.51981960086937,1267.1570808179104,2010.9874799389743,1137.3987153010617,733.8414171499086,149.15312544516445,3490.4173907480103,9.927690672368183,-46.989106257354884,-53.56421074738933
29.221565,2.0554172122876597,-165.5480966197,1848.9993198295426,-298.7422952793945,1266.5044625831501,2010.987053000479,1136.3315295820892,743.241113585151,149.87515077546746,3714.629651253543,9.436352697481421,-46.29290597613032,-53.59645071570847
29.222567,2.056466153930684,-166.17151066027492,1848.9991835762305,-299.98251832049806,1265.8440963006278,2010.9866286052818,1135.2553862144064,754.4372153039577,150.6056733347722,3939.7403948270294,9.067223808089388,-45.57396436167104,-53.62371401708202
29.223567,2.057515301331622,-166.80370542065657,1848.999044823115,-301.2392134325389,1265.1768258528552,2010.986207239224,1134.171429618199,767.5149469537103,151.37182708264055,4165.481153148332,8.820836630973137,-44.832521710751,-53.64584453918936
29.224569,2.0585646396179142,-167.44388490944564,1848.998903647963,-302.51108207138356,1264.503499548723,2010.9857893969454,1133.080820243198,782.5546545762718,152.1988185254919,4391.578188781127,8.697377539361165,-44.068877152104626,-53.66269932208908
29.225574,2.0596141539021864,-168.09124908804515,1848.998760132855,-303.7968036099086,1263.824969305968,2010.9853755816036,1131.9847335031686,799.6314645513493,153.10980523887508,4617.752960838289,8.696680810551767,-43.28339147828041,-53.67414826011029
29.226572,2.0606638292826394,-168.74499454725026,1848.9986143642066,-305.0950365366853,1263.142089822673,2010.9849663045823,1130.8843586897178,818.8149577394407,154.12578793761753,4843.722600384862,8.818223981569519,-42.476489440377215,-53.68007375268754
29.227571,2.0617136508434433,-169.40431519515042,1848.998466432786,-306.404419682525,1262.4557177388315,2010.984562085179,1129.7808978667201,840.1688599821751,155.26551644758936,5069.200393857404,9.061124437865569,-41.64866148386579,-53.68037030722559
29.228574,2.0627636036551302,-170.068402955582,1848.9983164337311,-307.7235734735157,1261.7667107890338,2010.9841634502807,1128.6755647466957,863.7507500290112,156.54540983702597,5293.8962729991335,9.424137260002313,-40.800464903868196,-53.674944099486964
29.229575,2.0638136727749874,-170.73644847634355,1848.9981644665606,-309.05110120913633,1261.0759269473474,2010.9837709340206,1127.5695835504928,889.6117858636812,157.97949087422904,5517.517310050208,9.905654345187408,-39.93252439818911,-53.66371249966279
29.230578,2.064863843247449,-171.40764184636018,1848.9980106351807,-310.38559036398755,1260.384223565487,2010.9833850774219,1126.4641878516506,917.7964503045769,159.57933489534278,5739.768217183365,10.503704814783946,-39.04553199737093,-53.64660357460214
29.231577,2.0659141001044916,-172.0811733209603,1848.9978550478866,-311.7256139116408,1259.6924565053753,2010.9830064280247,1125.360619406833,948.3423166540282,161.35403309357332,5960.351849429165,11.215956715099793,-38.14024635422833,-53.62355557805219
29.232579,2.066964428366027,-172.75623405440646,1848.9976978173638,-313.0697316690664,1259.001479267213,2010.9826355394987,1124.2601269737422,981.2798350757139,163.3101701808995,6178.969710584999,12.039720016129658,-37.217491381229536,-53.594516441029455
29.233581,2.0680148130402998,-173.43201683880136,1848.9975390606817,-314.41649166006954,1258.3121421141907,2010.9822729712384,1123.163965117935,1016.6321402903485,165.45181632407287,6395.3224618407785,12.97195091099922,-36.27815423248361,-53.55944327396719
29.234586,2.0690652391242796,-174.1077168484717,1848.9973788992813,-315.7644314961295,1257.6252911949907,2010.9819192879456,1122.0733930099852,1054.4148810994925,167.78053321571022,6609.11043307446,14.0092574174011,-35.323182637335556,-53.51830189165055
29.235582,2.070115691604055,-174.78253238891534,1848.9972174589623,-317.11207977300796,1256.9417676652365,2010.9815750591931,1120.9896732144568,1094.6360721768024,170.2953941048077,6820.0341369645,15.147906281074011,-34.353581604147465,-53.471066371523705
29.236585,2.071166155455228,-175.4556656493797,1848.9970548698623,-318.45795748146327,1256.262406809067,2010.9812408589767,1119.9140704721617,1137.2959685051794,172.99301757540925,7027.794786225881,16.38383117993711,-33.37040952545749,-53.41771865571087
29.237587,2.0722166156433133,-176.12632345812543,1848.996891266432,-319.80057943038054,1255.5880371620162,2010.9809172652483,1118.8478504771922,1182.3869627861743,175.86761482450095,7232.094814394212,17.712642225198145,-32.374773728950345,-53.35824820674268
29.238588,2.0732670571241294,-176.7937180394144,1848.9967267874065,-321.1384556806035,1254.9194796363774,2010.9806048594344,1117.7922786502206,1229.8935061031375,178.91105014837834,7432.638400652861,19.129636752016804,-31.36782553165975,-53.292651726210295
29.239589,2.0743174648441953,-177.45706777125034,1848.9965615757712,-322.4700929877331,1254.2575466502326,2010.9803042259407,1116.748618909552,1279.792052080044,182.1129142994028,7629.131999217982,20.629811387017355,-30.350754866301422,-53.22093294425477
29.240591,2.0753678237411246,-178.11559794289008,1848.9963957787215,-323.7939962521402,1253.6030412613138,2010.9800159516406,1115.718132441415,1332.0510247415807,185.46061032156064,7821.2848737658105,22.20787537353719,-29.324784557473556,-53.14310248595828
29.24159,2.076418118744022,-178.768541511136,1848.99622954762,-325.1086699744252,1252.956756306858,2010.97974062535,1114.7020764709623,1386.6308102452442,188.93945141367965,8008.809637308185,23.858265128823227,-28.29116433107186,-53.05917781841251
29.242593,2.0774683347738763,-179.41513985441682,1848.9960630379476,-326.4126197145488,1252.319473550615,2010.9794788372863,1113.7017030354598,1443.483772621809,192.53277030456556,8191.422797801184,25.575160001450403,-27.251164642734455,-52.96918327965841
29.243596,2.0785184567439563,-180.0546435236593,1848.9958964092477,-327.70435355284906,1251.6919628381543,2010.979231178513,1112.7182577611309,1502.5542936263814,196.22203955659396,8368.845309614107,27.352499192533653,-26.20607041101347,-52.8731501880685
29.244595,2.079568469560206,-180.6863129889532,1848.9957298250658,-328.9823835511571,1251.0749812616218,2010.9789982403715,1111.7529786451184,1563.7788367685546,199.987002145834,8540.803130799413,29.183999800417876,-25.15717473890076,-52.77111702834537
29.245594,2.0806183581216406,-181.30941938101088,1848.9955634528817,-330.2452272122183,1250.469272335077,2010.9787806138972,1110.8070948440268,1627.0860355571504,203.8058115999301,8707.027785896811,31.063175944447476,-24.105772703858076,-52.66312970832882
29.246596,2.0816681073207417,-181.92324522642502,1848.9953974640396,-331.4914089356276,1249.875565181534,2010.978578889223,1109.8818254704906,1692.396805962353,207.65518091154718,8867.256933785467,32.98335891823532,-23.053155292085854,-52.549241879313726
29.247595,2.082717702043852,-182.5270851757294,1848.995232033669,-332.7194614684875,1249.294573732819,2010.9783936549672,1108.9783783992011,1759.6244830648172,211.51053938633902,9021.234939875883,34.937718316399646,-22.000603547743765,-52.4295153116399
29.248597,2.083767127171571,-183.12024672327274,1848.995067340604,-333.92792734900456,1248.72699594332,2010.9782254976087,1108.097949083792,1828.6749818259639,215.34619653078457,9168.713451716068,36.91928407156892,-20.949383002288204,-52.30402031699644
29.2496,2.08481636757915,-183.70205091792246,1848.9949035672928,-335.1153603412486,1248.1735130187005,2010.9780750008483,1107.241719385967,1899.4469818740642,219.13551203741073,9309.451976882447,38.92096933117404,-19.90073844272286,-52.17283620909504
29.250602,2.0858654081368866,-184.27183306362355,1848.9947408997043,-336.28032685931504,1247.6347886606081,2010.97794274496,1106.410856418222,1971.8321361546207,222.8510708837523,9443.21846184037,40.93559409639757,-18.855889069819508,-52.03605179481298
29.251602,2.086914233710522,-184.82894340884968,1848.994579527229,-337.4214073791469,1247.111468328395,2010.977829306128,1105.6065114014875,2045.7153032389635,226.46486252827964,9569.789870296163,42.955909538558124,-17.816024087955004,-51.89376588828458
29.252608,2.087962829161631,-185.37274782399695,1848.9944196425715,-338.53719783629657,1246.604178518845,2010.977735255771,1104.8298185389924,2120.974803020525,229.9484631631864,9688.952759423795,44.97462290085476,-16.78229875739477,-51.746087840548725
29.253606,2.0890111793480166,-185.90262846578335,1848.9942614416389,-339.6263110079301,1246.1135260648748,2010.9776611598588,1104.0818939076287,2197.482695453184,233.273219971994,9800.50385223483,46.98442288546552,-15.755830928291607,-51.5931380771941
29.254607,2.090059269124106,-186.41798442773407,1848.994105123422,-340.68737787740423,1245.640097454155,2010.9776075782127,1103.363834368067,2275.105081900387,236.4104363403631,9904.250604269015,48.97800541756427,-14.737698064170356,-51.43504863605658
29.255607,2.091107083341341,-186.9182323758491,1848.9939508898744,-341.71904897977396,1245.1844581685737,2010.977575063798,1102.676716494848,2353.70242856809,239.33155698132057,10000.011762713166,50.9480996694196,-13.72893475202371,-51.27196369656431
29.256609,2.0921546068485735,-187.40280716856782,1848.9937989457806,-342.7199957266207,1244.7471520454299,2010.977564162006,1102.0215955276342,2433.1299113902455,242.0083519604202,10087.61791600635,52.88749422016692,-12.730530686916191,-51.10404009200938
29.257611,2.0932018244924584,-187.87116246016376,1848.9936494986207,-343.68891170862383,1244.328700661218,2010.9775754099253,1101.3995043447758,2513.2377816244616,244.41309864071366,10166.91203195789,54.78906322087396,-11.743429111423836,-50.9314477960951
29.258612,2.0942487211178475,-188.32277128672519,1848.99350275843,-344.62451397433455,1243.9296027388275,2010.977609335603,1100.8114524603043,2593.871751299784,246.51876061026795,10237.749982389221,56.645792430545505,-10.768525684214731,-50.754370375699565
29.259614,2.095295281568181,-188.75712663389862,1848.9933589376508,-345.52554428365124,1243.55033357895,2010.977666457298,1100.2584250454242,2674.8733975408704,248.29916270509463,10300.001052307813,58.45080498671531,-9.806667747151149,-50.57300540286394
29.260614,2.0963414906858806,-189.17374198559745,1848.9932182509785,-346.39077033453657,1243.1913445164482,2010.977747282726,1099.7413819755425,2756.0805846756484,249.72916129699337,10353.54843162699,60.19738677397424,-8.858653955931201,-50.387564820375005
29.261619,2.0973873333127404,-189.57215185290218,1848.9930809152022,-347.2189869615619,1242.8530624024197,2010.9778523082948,1099.2612569038297,2837.32790291949,250.78480907859827,10398.289687454131,61.87901125478355,-7.925234235169107,-50.1982752567251
29.262617,2.0984327942903183,-189.95191228240623,1848.992947149038,-348.0090173049093,1242.5358891126416,2010.9779820183346,1098.8189563622796,2918.4471223201176,251.44351364651612,10434.137214975794,63.4893636289319,-7.007110014984813,-50.00537828753668
29.263617,2.0994778584603266,-190.31260134328642,1848.9928171729582,-348.75971394850956,1242.240201083063,2010.9781368843212,1098.4153588911877,2999.2676605455863,251.68418925713664,10461.018664966443,65.02236419097069,-6.104934703044696,-49.80913064174349
29.264618,2.100522510665024,-190.65381959240625,1848.9926912090134,-349.4699600260414,1241.9663488729673,2010.9783173640924,1098.051314197934,3079.617063003778,251.48740120707964,10478.877345933368,66.47219075907527,-5.219314344077559,-49.609804352055804
29.265619,2.1015667357476038,-190.97519051678748,1848.9925694806482,-350.13867029356874,1241.714656756392,2010.9785239010605,1097.727642345916,3159.321493696497,250.83550236925993,10487.67259888133,67.83330005436119,-4.350808418489842,-49.407686850619065
29.266622,2.102610518552583,-191.2763609528157,1848.9924522125132,-350.7647921676406,1241.48542234236,2010.9787569234184,1097.4451329744347,3238.206235134956,249.7127614937011,10487.38014263543,69.10044791699829,-3.4999307329360567,-49.203081012216735
29.267622,2.1036538439261916,-191.5570014815745,1848.9923396302704,-351.34730672773196,1241.2789162244314,2010.9790168433417,1097.2045445502986,3316.0961955768803,248.10548295681997,10477.992387600107,70.2687082544478,-2.6671503585820155,-48.99630514852756
29.268625,2.10469669671676,-191.81680679973553,1848.9922319603932,-351.88522968195485,1241.0953816600527,2010.9793040561897,1097.0066036518574,3392.8164217892904,246.00211771118202,10459.51871575829,71.33349062747406,-1.8528925771361058,-48.7876929574486
29.269626,2.105739061775109,-192.05549606546367,1848.9921294299586,-352.37761229502524,1240.9350342801324,2010.979618939701,1096.8520042861514,3468.192615495971,243.39336524694426,10431.98572463084,72.29055639075898,-1.0575398000111986,-48.57759343115192
29.270633,2.1067809239549358,-192.27281321882836,1848.9920322664368,-352.8235422775226,1240.798061829245,2010.9799618531877,1096.7414072398096,3542.05165163497,240.27226642374603,10395.43743282748,73.13603331647161,-0.2814324314884762,-48.36637072539159
29.271629,2.107822268113202,-192.4685272762468,1848.9919406974716,-353.22214463553786,1240.6846239368147,2010.980333136729,1096.6754394642928,3614.222096529223,236.63428706550977,10349.935444731611,73.86642864087965,0.4751303481011098,-48.15440399082064
29.272631,2.108863079110518,-192.64243259851818,1848.9918549506576,-353.57258247986,1240.5948519196038,2010.9807331103655,1096.654693496039,3684.534724062484,232.47739222910718,10295.559071778876,74.47864048616754,1.2118898984082844,-47.9420871649312
29.273632,2.109903341811531,-192.7943491320427,1848.9917752533113,-353.8740577939076,1240.5288486157829,2010.9811620732914,1096.6797269120214,3752.8230279528675,227.80211106083075,10232.405407719474,74.96996762202973,1.9286275487432807,-47.729828720806545
29.274634,2.110943041085309,-192.92412262285254,1848.991701832237,-354.1258121596682,1240.4866882508304,2010.9816203030502,1096.7510618211948,3818.9237282270733,222.611592142812,10160.589355203481,75.33811754417805,2.6251641506125507,-47.51805136630151
29.275634,2.1119821618057246,-193.0316248031167,1848.9916349134894,-354.3271274409651,1240.4684163354648,2010.9821080547297,1096.8691843922632,3882.677270019211,216.91164920643695,10080.24360100403,75.58121285936308,3.301359756656232,-47.30719168477867
29.276635,2.1130206888518375,-193.11675354981656,1848.9915747221287,-354.47732642342675,1240.474049595778,2010.9826255601645,1097.0345444181617,3943.928312848264,210.71079705327463,9991.518537201933,75.69779597835263,3.957113423732487,-47.09769970635365
29.277636,2.1140586071082783,-193.17943301532233,1848.9915214819714,-354.5757734105916,1240.5035759357036,2010.9831730271378,1097.247554917603,4002.5262085666604,204.0202774780179,9894.582125704572,75.68683212913349,4.59236313239737,-46.89003839697237
29.27864,2.1150959014656308,-193.21961372963574,1848.991475415338,-354.6218747756364,1240.5569544319098,2010.98375063859,1097.5085917740014,4058.325466218098,196.85407493455594,9789.619703568109,75.54771071234956,5.207085809939291,-46.68468305178691
29.279645,2.116132556820813,-193.23727267409768,1848.991436742793,-354.61507946827027,1240.6341153611768,2010.9843585518327,1097.8179934120433,4111.186202094835,189.22892162802228,9676.83372674143,75.28024502967673,5.801297439176361,-46.482120579349015
29.280642,2.1171685580774584,-193.23241332639458,1848.9914056828823,-354.5548794763948,1240.7349602602715,2010.9849968977685,1098.1760605121365,4160.974573342332,181.16429165545378,9556.44345005754,74.88467042343369,6.375053230094481,-46.2828486641559
29.28164,2.118203890146295,-193.20506567673087,1848.9913824518646,-354.4408102421846,1240.8593620183074,2010.98566578012,1098.5830557629238,4207.563193521615,172.68238375897187,9428.68454156722,74.36164087224093,6.928447825995202,-46.08737479708307
29.282644,2.119238537945524,-193.15528621506814,1848.9913672634423,-354.2724510322989,1241.0071650015261,2010.9863652746642,1099.039203652015,4250.831528605961,163.80809220185176,9293.808629642695,73.7122240929875,7.461615510462681,-45.89621516612092
29.283644,2.120272486401195,-193.08315788936684,1848.9913603284833,-354.0494252619874,1241.1781852104111,2010.9870954284795,1099.5446902950484,4290.666271957425,154.5689652331612,9152.082781676256,72.93789520392548,7.974730376888836,-45.70989340336935
29.284647,2.121305720447587,-192.98879003479965,1848.9913618547419,-353.7714007729125,1241.3722104689975,2010.987856259201,1100.0996633031557,4326.961696899246,144.99515057420714,9003.788913658012,72.04052900766625,8.468006419182228,-45.528939188175585
29.285648,2.122338225027583,-192.87231827393944,1848.9913720465759,-353.4380900645588,1241.589000646212,2010.9886477542875,1100.7042316888696,4359.619985571619,135.11932734264704,8849.223130434311,71.02239095606548,8.941697500950951,-45.35388671030857
29.28665,2.123369985093046,-192.73390438795977,1848.9913911046608,-353.0492504791563,1241.828287909032,2010.9894698703017,1101.3584658104755,4388.5515328309775,124.97662382998827,8688.69499701692,69.88612686101365,9.39609716115091,-45.18527300084749
29.287648,2.124400985605195,-192.57373615891856,1848.9914192256995,-352.6046843400966,1242.0897770072188,2010.9903225322012,1102.06239735477,4413.675224027492,114.60452056698736,8522.526741924727,68.63475141585059,9.83153821715676,-45.02363614184557
29.288654,2.125431211534976,-192.39202718323133,1848.9914566021273,-352.1042390438717,1242.37314558934,2010.9912056326464,1102.8160193581505,4434.918685573781,104.04273815055338,8351.052394184184,67.27163559174595,10.24839213135696,-44.86951336869711
29.289651,2.126460647863437,-192.18901665647368,1848.9915034218168,-351.547807105615,1242.678044549758,2010.9921190313232,1103.6192862659275,4452.218507301552,93.33310936640775,8174.616856281065,65.80049297242752,10.647068114348619,-44.72343908133662
29.290653,2.1274892795820985,-191.96496912968715,1848.9915598677783,-350.93532615837756,1243.0040984062261,2010.9930625542836,1104.4721140297022,4465.520435693799,82.51943522502971,7993.574916032187,64.22536508978135,11.028011946204895,-44.58594278180509
29.291652,2.1285170916933263,-191.7201742373975,1848.9916261178598,-350.26677890632135,1243.3509057076933,2010.9940359933005,1105.3743802426263,4474.779537179525,71.64732463497295,7808.290201019669,62.55060582265582,11.391704506655607,-44.457546956287025
29.292655,2.129544069210697,-191.45494639758834,1848.9917023444443,-349.5421930320602,1243.7180394718898,2010.9950391052441,1106.3259243123161,4479.960330786198,60.7640175674438,7619.134079889601,60.78086492185904,11.738660014936729,-44.338764919575176
29.293655,2.130570197159368,-191.1696244839074,1848.991788714144,-348.7616410584301,1244.1050476522316,2010.9960716114772,1107.3265476711624,4481.036889561998,49.91819171823684,7426.484515449345,58.92107072570118,12.069423990247696,-44.230098639322506
29.294659,2.1315954605764453,-190.86457147041506,1848.9918853874935,-347.9252401650167,1244.5114536335461,2010.9971331972708,1108.3760140237437,4477.992910304421,39.15975284613069,7230.72487509046,56.97641213205116,12.384570953996013,-44.132036556618225
29.295659,2.1326198445113485,-190.54017404921848,1848.9919925186416,-347.03315195981804,1244.9367567560962,2010.9982235112418,1109.4740496310117,4470.82175126323,28.539609158493935,7032.24270460439,54.95231989426006,12.68470190493891,-44.04505141846862
29.296661,2.133643334026177,-190.19684222136507,1848.9921102550409,-346.0855822064654,1245.380432867343,2010.999342164812,1110.620343630882,4459.526437622846,18.109430322613893,6831.4284719332945,52.85444730931655,12.970441607224148,-43.96959813673768
29.297666,2.1346659141960767,-189.8350088614023,1848.9922387371373,-345.08278050747293,1245.8419349008602,2011.0004887316952,1111.814548394828,4444.119634711419,7.921391902350279,6628.6742877971365,50.68865036739246,13.242435738277164,-43.906111687057475
29.298664,2.1356875701096003,-189.45512925603913,1848.9923780980591,-344.0250399440339,1246.3206934817758,2011.001662747405,1113.0562799200347,4424.623589029934,-1.9720937490203676,6424.372610451296,48.46096743278521,13.50134794801248,-43.85500506013943
29.299665,2.1367082868690708,-189.05768061737686,1848.9925284633075,-342.91269667292664,1246.8161175580833,2011.0028637087914,1114.345118256635,4401.070037343799,-11.51865887123654,6218.914942050289,46.1775985276548,13.747856883237466,-43.816667276756874
29.300666,2.1377280495909403,-188.6431615712052,1848.9926899504455,-341.7461294811409,1247.3275950571406,2011.004091073605,1115.6806079695127,4373.500084230078,-20.66627244683749,6012.690524219986,43.84488429233617,13.982653231903395,-43.79146147642719
29.301666,2.1387468434061505,-188.21209162088994,1848.9928626687872,-340.5257592988791,1247.8544935666355,2011.0053442600872,1117.062258634123,4341.964048624547,-29.363541375016645,5806.085040473274,41.46928469938605,14.20643684126919,-43.779723088633766
29.302669,2.1397646534604933,-187.76501058740712,1848.9930467190864,-339.25204867163393,1248.3961610392735,2011.006622646593,1118.4895453657498,4306.521280062832,-37.560018701570314,5599.4793330452285,39.05735760242841,14.419913961983376,-43.781758094538105
29.303668,2.1407814649149635,-187.3024780261078,1848.9932421932283,-337.9255011920848,1248.9519265204099,2011.0079255712442,1119.961909381586,4267.239945457827,-45.20651672998739,5393.248141577459,36.615737204646024,14.623794666501787,-43.797841386733495
29.304673,2.141797262946116,-186.82507262082487,1848.9934491739225,-336.54666089260047,1249.5211008978197,2011.0092523316114,1121.4787585949905,4224.19678740048,-52.255422656066145,5187.7588708520925,34.15111253498199,14.818790485248995,-43.82821523466953
29.305671,2.142812032746421,-186.33339155596227,1848.993667734397,-335.11611159917413,1250.1029776727737,2011.010602184432,1123.0394682412395,4177.476855111888,-58.661014215577794,4983.370394469493,31.67020602256396,15.005612297471526,-43.87308786369935
29.306678,2.143825759524617,-185.8280498672339,1848.9938979380943,-333.63447624765996,1250.696833751548,2011.0119743453622,1124.6433815340615,4127.173209310473,-64.37977271538651,4780.431900986953,29.17975226126803,15.184968505490254,-43.93263215595455
29.307675,2.144838428506064,-185.3096797717474,1848.9941398383692,-332.10241616321787,1251.301930256471,2011.0133679887638,1126.2898103521957,4073.3866023878236,-69.37069073572056,4579.281788596796,26.68647705631371,15.357563510870893,-44.006984481249184
29.308676,2.1458500249330923,-184.77892997815573,1848.9943934781907,-330.52063030391383,1251.9175133555832,2011.0147822475244,1127.9780359551926,4016.225135409038,-73.59557174681007,4380.246613931579,24.19707684315312,15.524096499481645,-44.09624366594421
29.309677,2.1468605340653517,-184.23646497762596,1848.994658889845,-328.88985446946276,1252.5428151099502,2011.016216212917,1129.7073097276314,3955.803893566405,-77.01931887829987,4183.640100053171,21.718198565900764,15.685260530675338,-44.20047010720696
29.310681,2.147869941180162,-183.6829643164016,1848.994936094645,-327.210860476138,1253.1770543376533,2011.017668934497,1131.4768539509084,3892.24456181685,-79.61021011570519,3989.762208123407,19.256420098698833,15.84174191478763,-44.31968503938056
29.31168,2.148878231572859,-183.1191218507603,1848.9952251026418,-325.48445529890864,1253.8194374934526,2011.019139420038,1133.2858626017241,3825.675022522004,-81.34015727489117,3798.898276679146,16.81823128924441,15.994219852700738,-44.45386995821937
29.312682,2.1498853905571416,-182.54564498519375,1848.99552591234,-323.71148018189973,1254.4691595630977,2011.0206266355124,1135.1335021763648,3756.2289369837604,-82.18494622219104,3611.3182318552467,14.410015699202091,16.143366300794636,-44.6029662075391
29.313682,2.1508914034654123,-181.96325389466045,1848.9958385104194,-321.89280971830283,1255.125404971247,2011.0221295051067,1137.0189125398617,3684.0453128271424,-82.12445596225126,3427.2758713254375,12.038033110877754,16.289846014051165,-44.76687473140471
29.314686,2.1518962556491203,-181.37268073178427,1848.9961628714602,-320.02935090089414,1255.7873485019263,2011.023646911283,1138.941207799073,3609.268059226312,-81.1428544050557,3247.008224171976,9.70840286279289,16.43431671002789,-44.94545599342818
29.315689,2.1528999324791007,-180.77466881989244,1848.996498957673,-318.12204214434547,1256.4541562304353,2011.0251776948814,1140.8994771987122,3532.0455319990397,-79.22876884439096,3070.7349883575116,7.427088068500286,16.577429287915635,-45.138530063202914
29.316688,2.1539024193459153,-180.16997183280947,1848.9968467186366,-316.1718522805418,1257.1249864655924,2011.0267206552678,1142.8927860393105,3452.530070610844,-76.3754294285828,2898.658046962366,5.199880763521223,16.719828030877206,-45.345876868502145
29.317689,2.154903701660192,-179.55935296234185,1848.9972060910416,-314.1797795281452,1257.798990701185,2011.0282745505262,1144.9201766160768,3370.877529133392,-72.58078417668345,2730.961063871785,3.032388015407907,16.862150716839885,-45.56723661068424
29.318692,2.1559037648529595,-178.94358407440944,1848.9975769984396,-312.14685043766997,1258.4753145754744,2011.029838097699,1146.9806691775952,3287.2468031937565,-67.84758438491784,2567.8091591538423,0.930019022314954,17.005028562883016,-45.802310339734696
29.319694,2.1569025943759805,-178.3234448547972,1848.997959351,-310.0741188133594,1259.1530988375944,2011.031409973072,1149.0732629032773,3201.79935493283,-62.183439573878395,2409.3486639617417,-1.1020267834334048,17.14908593102321,-46.0507606844631
29.320695,2.157900175702089,-177.69972194551906,1848.998353045272,-307.9626646131762,1259.8314803196706,2011.0329888125086,1151.19693689847,3114.6987379635693,-55.60084144080682,2255.706954425391,-3.0587706183274244,17.294939728161832,-46.31221273256292
29.321697,2.1588964943255204,-177.07320807280055,1848.9987579639576,-305.81359282823826,1260.509592913484,2011.034573211832,1153.3506512061158,3026.1101242835994,-48.117156597139925,2106.992363666198,-4.935464216161446,17.443198439839655,-46.58625505457792
29.3227,2.1598915357622426,-176.4447011677011,1848.9991739756908,-303.62803234305005,1261.1865685504927,2011.0361617272536,1155.533347833832,2936.1998350525423,-39.75458818331494,1963.2941707745397,-6.727598688044224,17.5944607458864,-46.87244086530652
29.3237,2.1608852855502834,-175.81500348040927,1848.999600934828,-301.4071347778927,1261.8615381840154,2011.037752875856,1157.7439517952728,2845.134877092599,-30.540106755141352,1824.6826653284265,-8.430912386729423,17.749313675715065,-47.17028931573659
29.324705,2.1618777292500573,-175.18492068925457,1849.0000386812465,-299.15207331475176,1262.533632772382,2011.0393451361258,1159.9813721646053,2753.082486911063,-20.50535112404752,1691.209285800415,-10.041397794459256,17.908330271628966,-47.47928690814531
29.325701,2.162868852444691,-174.5552610054895,1849.000487040151,-296.864041508173,1263.2019842618336,2011.0409369485367,1162.2445031429236,2660.2096839751202,-9.686500103132973,1562.906829992879,-11.555307459299538,18.072066739942592,-47.798889026482094
29.326703,2.1638586407403473,-173.92683427490363,1849.0009458218913,-294.54425208244743,1263.865726567964,2011.042526716187,1164.532225135394,2566.682834891696,1.8758836410850592,1439.7897354540573,-12.969159010023189,18.24105908181369,-48.12852157354226
29.327702,2.1648470797665484,-173.3004510773382,1849.001414821789,-292.19393571653933,1264.5239965544777,2011.0441128054879,1166.843405837921,2472.667230057669,14.137036207493141,1321.8544276535133,-14.279739284044354,18.415819208203963,-48.4675827056636
29.328705,2.1658341551764924,-172.67692182517715,1849.0018938199785,-289.8143398181795,1265.1759350080533,2011.0456935469063,1169.1769013321125,2378.326674248085,27.04819992785592,1209.0797335307711,-15.484107606675646,18.596830556155997,-48.81544465469178
29.329706,2.1668198526473743,-172.0570558618927,1849.002382581257,-287.4067272885525,1265.8206876081053,2011.0472672357607,1171.5315571873182,2283.823092502346,40.55685388927976,1101.4273578702962,-16.579598262873485,18.78454323657268,-49.1714556258303
29.33071,2.167804157880702,-171.4416605617271,1849.0028808549462,-284.97237527901154,1266.4574058902472,2011.048832133073,1173.906209568519,2189.316152551686,54.60696557288489,998.8424197957139,-17.563822204453913,18.97936875685659,-49.53494175890414
29.331708,2.1687870566026137,-170.83154043159047,1849.003388374764,-282.51257394125696,1267.0852482022674,2011.0503864664731,1176.2996863488409,2094.9629049073965,69.13926155141783,901.2540465130803,-18.43466803637737,19.181674374768072,-49.90520913975163
29.33271,2.1697685345641893,-170.22749621625428,1849.0039048587125,-280.02862517240976,1267.7033806514432,2011.051928431162,1178.7108082254633,2000.9174416004737,84.09151509671007,808.5760212650312,-19.190302325210794,19.391777152001374,-50.28154584806747
29.333716,2.1707485775417634,-169.6303240079152,1849.004430008976,-277.52184135641284,1268.3109780420216,2011.0534561909278,1181.138389837684,1907.330574432097,99.39884848274531,720.7074822839359,-19.829169271635937,19.609937786451063,-50.66322402808377
29.334714,2.171727171337236,-169.04081436119938,1849.0049635118332,-274.9935441031851,1268.9072248017071,2011.0549678792202,1183.581240885898,1814.3495334624472,114.99404773140917,637.5336693532242,-20.349989787211374,19.836354310429517,-51.04950196895942
29.335713,2.1727043017783827,-168.45975141467144,1849.0055050375852,-272.44506298694995,1269.4913158960076,2011.05646160028,1186.0381672502444,1722.1176863342248,130.8078875351005,558.9267144033307,-20.751760013565676,20.071155748248195,-51.439626182583325
29.336716,2.1736799547191574,-167.8879120199041,1849.0060542404965,-269.87773428515305,1270.0624577293045,2011.057935430326,1188.5079721076681,1630.7742788975027,146.7694641021694,484.74647238434125,-21.033749319578344,20.314395831043573,-51.83283346757235
29.337717,2.174654116040001,-167.32606487915655,1849.0066107587484,-267.2928997193769,1270.6198690315296,2011.0593874188005,1190.989457046164,1540.454197474769,162.80653370613652,414.8413884738743,-21.19549780864508,20.56604686994015,-52.22835294939237
29.338719,2.17562677164814,-166.77496969269873,1849.0071742144094,-264.6919051996483,1271.1627817293581,2011.0608155896687,1193.4814231749733,1451.287752979479,178.84585477607305,349.0493974985199,-21.236813363941486,20.825993890805133,-52.62540808758902
29.339719,2.1765979074778894,-166.2353763168054,1849.0077442134218,-262.07609957352184,1271.6904418008526,2011.0622179427771,1195.9826722295275,1363.4004869783303,194.81353144131677,287.1988512730107,-21.157768255229147,21.0940291350716,-53.02321864204105
29.340721,2.177567509490953,-165.70802393343035,1849.0083203456036,-259.44683338130653,1272.2021101125144,2011.0635924552687,1198.492007669946,1276.9129996667612,210.63535653653787,229.10946939617023,-20.958695326731345,21.36984703144875,-53.42100259102928
29.341721,2.178535563676719,-165.1936402325539,1849.0089021846636,-256.8054576187824,1272.6970632377315,2011.0649370830567,1201.0082357719123,1191.9407996088237,226.2371521805778,174.59330888995112,-20.640183782116033,21.653039742641468,-53.81797799488114
29.342727,2.1795020560525598,-164.69294060817936,1849.0094892882364,-254.1533225087342,1273.1745942556256,2011.0662497623541,1203.530166708758,1108.5941749768267,241.54510616199752,123.45574793137645,-20.20307457948427,21.94309338893386,-54.21336480010034
29.343722,2.180466972664121,-164.20662736893553,1849.010081197932,-251.49177628260585,1273.6340135293376,2011.0675284112601,1206.0566156235961,1026.9780859136183,256.48610249350105,75.49647881129775,-19.648455446267764,22.23938504586875,-54.606386580243274
29.344725,2.181430299585617,-163.7353889642212,1849.0106774394046,-248.8221639735556,1274.0746494628088,2011.0687709314032,1208.5864036903608,947.1920775320033,270.9880446339601,30.510505163439365,-18.977655521101468,22.541180605666572,-54.9962722113284
29.345725,2.1823920229201192,-163.2798992268076,1849.0112775224363,-246.14582622216827,1274.4958492351461,2011.0699752096405,1211.1183591626248,869.3302129626908,284.9801700182006,-11.710861552660935,-18.192239627263035,22.847633581409106,-55.38225748121515
29.346726,2.183352128799845,-162.84081663279213,1849.0118809410426,-243.46409809605495,1274.8969795116936,2011.0711391198136,1213.6513184090886,793.4810257656148,298.3933546784189,-51.37901135547836,-17.2940021803465,23.157784919842026,-55.76358663407121
29.347726,2.1843106033864435,-162.41878357977313,1849.0124871735936,-240.77830792454145,1275.2774271309718,2011.0722605245608,1216.1841269346783,719.7274909307463,311.160406884343,-88.70705585693288,-16.284960731457787,23.470563873640952,-56.13951385260094
29.348729,2.1852674328712776,-162.0144256840914,1849.0130956829537,-238.08977614961645,1275.6365997666805,2011.0733372771845,1218.7156403862123,648.1470136148318,323.2163488692372,-123.90886415452823,-15.167349146374871,23.78478996780251,-56.50930468196156
29.349731,2.1862226034757084,-161.6283510979572,1849.013705916642,-235.39981419427764,1275.9739265640019,2011.0743672235747,1221.2447255416366,578.8114346907672,334.4986858427332,-157.1981193585994,-13.943610421042772,24.09917607793353,-56.87223740015795
29.350732,2.1871761014513753,-161.2611498472537,1849.0143173070112,-232.70972334937713,1276.288858749475,2011.0753482041844,1223.7702612818553,511.78705212705336,344.94766161650983,-188.78740045715176,-12.61638913474216,24.412332620875894,-57.22760434022988
29.351736,2.1881279130804723,-160.91339319077997,1849.0149292714443,-230.02079368003072,1276.58087021376,2011.0762780560588,1226.291139544213,447.13465716605225,354.50650028253796,-218.88729401426332,-11.188523544230907,24.722772840493224,-57.57471316983462
29.352734,2.189078024676026,-160.58563300166546,1849.0155412125716,-227.33430295261704,1276.849458066636,2011.0771546149188,1228.8062662567138,384.909584231132,363.12163348393875,-247.70553994059512,-9.663037324749666,25.02891915389409,-57.91288813393033
29.353735,2.1900264225821697,-160.2784011716591,1849.0161525185088,-224.65151558335364,1277.0941431636236,2011.0779757172975,1231.314562252089,325.16177346339236,370.7429129042037,-275.44621526724313,-8.043130966632754,25.32911050654078,-58.241471266154534
29.354737,2.190973093174416,-159.99220903896403,1849.016762563116,-221.97368160939848,1277.3144706036535,2011.078739202724,1233.814964160855,267.9358447673317,377.32380767122845,-302.30895949970574,-6.33217283934606,25.621610669501543,-58.55982357413139
29.355737,2.1919180228599258,-159.72754684025776,1849.0173707062752,-219.30203568338413,1277.5100101972575,2011.0794429159594,1236.3064252825388,213.27118223057747,382.8215864288443,-328.48824473175387,-4.533689938403813,25.904617399411343,-58.86732620332815
29.356739,2.192861198077777,-159.48488318750526,1849.017976294191,-216.63779609225134,1277.6803569047865,2011.080084709284,1238.7879164342967,161.20202777523397,387.1974838715584,-354.1726932657786,-2.651358335050662,26.17627237200621,-59.1633815832208
29.357741,2.193802605299229,-159.26466457013856,1849.0185786597087,-213.9821638012072,1277.8251312442158,2011.0806624448294,1241.2584267761792,111.75758289762747,390.41685156987046,-379.54444502414714,-0.6889933537311818,26.434671793387142,-59.447414558410884
29.358741,2.1947422310279885,-159.0673148831424,1849.0191771226566,-211.33632152358956,1277.9439796681313,2011.081173996961,1243.716964612355,64.9621173596756,392.4492929361065,-404.7785765530471,1.3494604922413052,26.677877589079955,-59.718873506005885
29.359744,2.195680061800471,-158.89323498155105,1849.019770990208,-208.70143281737512,1278.03657490954,2011.0816172547036,1246.1625581676246,20.83508370913781,393.26878219679344,-430.0425729239964,3.459939771369358,26.903929068903693,-59.97723143918937
29.360749,2.196616084186062,-158.74280226182609,1849.020359557265,-206.0786412090251,1278.1026162961878,2011.0819901242128,1248.5942563386043,-20.60876347217204,392.8537672499054,-455.49585333623696,5.638272571367047,27.11085496493469,-60.221987095648785
29.361746,2.1975502847873725,-158.61637027054874,1849.020942106866,-203.46906934531765,1278.1418300331147,2011.0822905312887,1251.0111294189828,-59.35924466348437,391.18725629641995,-481.2893507231571,7.880189060454142,27.29668573974638,-60.452666008512246
29.362747,2.198482650240496,-158.51426834082562,1849.0215179106128,-200.87381817377218,1278.1539694532146,2011.082516423931,1253.4122697982968,-95.41062987733996,388.2568881477097,-507.56514517538307,10.181332127566485,27.459466062049753,-60.66882155666034
29.363748,2.199413167215263,-158.43680125676946,1849.0220862291192,-198.29396615222782,1278.1388152356108,2011.0826657749355,1255.7967926337055,-128.76151149773668,384.0549861248571,-534.456150520202,12.537268055325145,27.597267346577084,-60.87003599060756
29.36475,2.2003418224154916,-158.38424894638035,1849.0226463124811,-195.73056848809563,1278.0961755917065,2011.0827365845278,1258.1638364942824,-159.41467642003218,378.57859548372403,-562.0858529497095,14.943497179530217,27.708200254716917,-61.055921429495044
29.36575,2.2012686025792383,-158.3568662031166,1849.0231974007713,-193.1846564077597,1278.025886418807,2011.082726883037,1260.5125639773858,-187.37697836804864,371.82950432037035,-590.5681001767177,17.39546449000734,27.790427052671653,-61.22612082410252
29.366753,2.202193494479042,-158.3548824364076,1849.0237387245527,-190.6572364565594,1277.927811421252,2011.0826347336013,1262.8421622967182,-212.65921119613813,363.8142479344423,-620.006939225945,19.88857012965805,27.84217372554792,-61.380308880200154
29.367751,2.203116484922172,-158.3785014513245,1849.024269505416,-188.14928982974197,1277.801842199045,2011.0824582349048,1265.151843841719,-235.27598390971096,354.5440966523912,-650.4965006456079,22.418179751195307,27.86174174908281,-61.51819293603307
29.368755,2.204037560750871,-158.42790125758836,1849.02478895654,-185.66177173472863,1277.6478983040017,2011.0821955239505,1267.440846707981,-255.24559805797864,344.0350271369251,-682.1209266574707,24.979634693885952,27.84751942519264,-61.63951378731435
29.369759,2.2049567088425968,-158.5032339080585,1849.025296283274,-183.1956107849941,1277.465927263489,2011.0818447788595,1269.7084351984151,-272.589928068823,332.30767723332946,-714.9543405564673,27.5682619454724,27.79799269250312,-61.74404645290277
29.370757,2.205873916110258,-158.60462536680788,1849.0257906837398,-180.75170842581628,1277.2559045718638,2011.0814042216978,1271.953900294925,-287.3343050093514,319.3872844271025,-749.060854527167,30.179383857486492,27.711755328117803,-61.83160087446871
29.371755,2.206789169502454,-158.73217540685562,1849.026271349457,-178.33093839210977,1277.0178336497652,2011.0808721213268,1274.1765601003876,-299.5074041684218,305.30360801108617,-784.4946129645801,32.8083275857606,27.587518462144576,-61.90202254396041
29.372757,2.2077024560037075,-158.88595753759003,1849.0267374659882,-175.93414619851436,1276.7517457714528,2011.0802467962774,1276.3757602507706,-309.14113677058896,290.0908350846622,-821.2998683698685,35.45043423225864,27.424119332179636,-61.9551930535432
29.373758,2.208613762634697,-159.06601896188064,1849.0271882136096,-173.56214866186906,1276.4576999604183,2011.0795266176426,1278.5508742972554,-316.27054604556406,273.7874705335006,-859.511086934148,38.10106766923539,27.22052921137302,-61.99103056377825
29.37476,2.2095230764524882,-159.27238056284062,1849.0276227680008,-171.21573345616216,1276.1357828535374,2011.0787100119912,1280.701304058275,-320.93370779399726,256.4362111666216,-899.1530810205614,40.75562303179921,26.9758604511359,-62.009490186943175
29.37576,2.210430384550762,-159.5050369201676,1849.0280403009558,-168.8956587000076,1275.786108534061,2011.077795464296,1282.8264799413998,-323.17163550947083,238.08380421884016,-940.2411658993448,43.40953486983316,26.689372588043316,-62.01056428335835
29.376762,2.2113356740600394,-159.76395635595574,1849.0284399811164,-166.60265257665958,1275.4088183337774,2011.0767815208744,1284.9258612350573,-323.02819003813147,218.7808904615866,-982.7813382746082,46.05828495477482,26.360477473788855,-61.994282669193424
29.377763,2.212238932147905,-160.04908100983866,1849.0288209747262,-164.3374129865391,1275.0040806047161,2011.0756667923395,1286.9989363700893,-320.5499936814888,198.58183220419505,-1026.7704743558784,48.69740974099822,25.988743396722416,-61.96071273439028
29.378769,2.213140146019229,-160.36032694329037,1849.029182446404,-162.10060723220894,1274.5720904607995,2011.0744499565587,1289.0452231511892,-315.78634857470786,177.54452651152516,-1072.1965454622755,51.322507485531794,25.573898173116202,-61.909959469080185
29.379766,2.2140393029163867,-160.69758427287795,1849.02952355994,-159.89287173569784,1274.113069489875,2011.0731297616173,1291.0642689582876,-308.7891591024556,155.73020401257423,-1119.0388493924793,53.92924503346967,25.115831195567825,-61.84216539631529
29.380767,2.214936390119474,-161.06071733222817,1849.0298434791086,-157.7148117880395,1273.6272654366041,2011.071705028782,1293.0556509179828,-299.61285804733393,133.2032137285276,-1167.2682560394644,56.5133642793757,24.614594434719773,-61.75751040822636
29.381768,2.2158313949465214,-161.449564862438,1849.0301413685067,-155.5670013308592,1273.114951856711,2011.0701746554657,1295.0189760451428,-288.31433610256596,110.03079440705655,-1216.8474659659926,59.070688316916446,24.070402398701518,-61.65621150198682
29.382769,2.2167243047537086,-161.8639402306274,1849.030416394405,-153.4499827698074,1272.5764277431324,2011.0685376181898,1296.9538813548306,-274.9528743214532,86.28283291181462,-1267.7312808765982,61.59712728971037,23.48363106242107,-61.53852241130506
29.38377,2.217615106935574,-162.30363167630185,1849.0306677256215,-151.3642668196093,1272.0120171246288,2011.0667929755343,1298.8600339447346,-259.5900790218963,62.0316102810424,-1319.8668851170887,64.088683955933,22.854815786183167,-61.40473312868734
29.384772,2.218503788925222,-162.76840258516194,1849.0308945344161,-149.3103323804686,1271.4220686374504,2011.0649398710818,1300.73713104831,-242.28981861578447,37.3515361360285,-1373.1941374976448,66.54145897766288,22.184648250311827,-61.25516931350548
29.385774,2.21939033819453,-163.2579917899684,1849.0310959973988,-147.2886264455352,1270.8069550706805,2011.0629775363475,1302.5849000588676,-223.11816179116377,12.318872188170818,-1427.6458728661744,68.95165594336903,21.47397243977744,-61.0901915809714
29.386774,2.22027474225435,-163.7721138980417,1849.031271296459,-145.29956403911848,1270.167072885906,2011.060905293694,1304.4030985248683,-202.14331644051953,-12.988554337802674,-1483.1482129517358,71.31558612852345,20.72377972044882,-60.9101946673746
29.387777,2.2211569886547116,-164.31045964494763,1849.0314196197116,-143.34352818530093,1269.5028417118963,2011.0587225592242,1306.191514116702,-179.43556870172117,-38.49164647718195,-1539.6208860520248,73.62967299551514,19.935203056362084,-60.71560646728458
29.388776,2.2220370649850194,-164.87269627389145,1849.0315401624605,-141.42086990658177,1268.814703814999,2011.0564288456505,1307.9499645652525,-155.06722145937084,-64.1103415369551,-1596.9775551539217,75.89045643028716,19.109510424884416,-60.50688693884909
29.389778,2.22291495887425,-165.4584679403165,1849.0316321281755,-139.53190825215734,1268.1031235459893,2011.0540237651383,1309.678297572565,-129.11253164352252,-89.76392231499484,-1655.1261540529836,78.0945967096967,18.24809749339951,-60.28452687391581
29.390781,2.223790657991146,-166.06739614117384,1849.031694729487,-137.67693035542115,1267.3685867641389,2011.0515070321178,1311.3763906949505,-101.64764566008596,-115.37133442159248,-1713.96923097897,80.23887819072687,17.352479626869126,-60.04904653052245
29.391779,2.2246641500444113,-166.69908016830357,1849.0317271891956,-135.85619152024714,1266.6116002392885,2011.0488784660654,1313.0441511988793,-72.75053229279027,-140.85150852238579,-1773.404299143746,82.3202127105508,16.424283300238407,-59.8009941263023
29.392782,2.225535422782899,-167.35309758534174,1849.0317287412965,-134.06991533559872,1265.8326910327344,2011.0461379942433,1314.6815158900297,-42.50091243018826,-166.12368624520175,-1833.3241935105068,84.33564268519305,15.46523699313842,-59.54094419256111
29.393783,2.226404463995802,-168.02900472754135,1849.0316986320179,-132.31829381799037,1265.0324058577517,2011.043285654401,1316.2884509158612,-10.980184992192727,-191.1077484172579,-1893.6174329459718,86.28234389398463,14.477161646629552,-59.269495790318146
29.394786,2.227271261512836,-168.72633722387155,1849.0316361208718,-130.6014875813115,1264.211310420603,2011.04032159743,1317.8649515421034,21.728651541986974,-215.7245442251735,-1954.1685867679053,88.15762793666063,13.461960762719828,-58.987270591563764
29.395784,2.228135803204428,-169.44461054073668,1849.031540481715,-128.91962603350842,1263.3699887428977,2011.0372460899696,1319.41104190355,55.54108256996424,-239.8962198204423,-2014.8586445476574,89.95894434952129,12.421610227093728,-58.69491083135473
29.39679,2.228998076981892,-170.1833205466333,1849.0314110038237,-127.27280759960823,1262.509042466189,2011.0340595169616,1320.926774729561,90.37116629461724,-263.5465448298676,-2075.565387879831,91.6838823668663,11.358147934150773,-58.39307713901553
29.397786,2.229858070797607,-170.941944097042,1849.031246992978,-125.66109997055672,1261.629090139718,2011.0307623841488,1322.412231044682,126.13162863182887,-286.60123517644246,-2136.1637626966535,93.33017231440787,10.273663291489354,-58.08244625942607
29.398788,2.2307157726451967,-171.7199396388289,1849.0310477725582,-124.08454037733432,1260.7307664922346,2011.0273553205132,1323.8675198447925,162.73396453926472,-308.9882705733631,-2196.5262505901505,94.89568662290948,9.170286678632948,-57.76370867792281
29.399789,2.2315711705597034,-172.5167478334103,1849.0308126846496,-122.54313588980472,1259.8147216888394,2011.0238390806487,1325.2927777492048,200.08854615882714,-330.6382050236781,-2256.5232375167056,96.37844045298017,8.050178932027475,-57.43756616450791
29.400791,2.232424252617761,-173.331792197914,1849.0305410911535,-121.03686373974361,1258.8816205738144,2011.0202145470673,1326.6881686291479,238.10473811259135,-351.48446864105205,-2316.0233782009054,97.77659192571242,6.915520924985658,-57.104729254697254
29.401792,2.2332750069377645,-174.16447976355045,1849.0302323749077,-119.56567166748846,1257.9321419004125,2011.0164827324331,1328.053883213087,276.6910202357546,-371.46365910310203,-2374.893954532632,99.08844195862258,5.768503307234555,-56.76591468536903
29.402795,2.2341234216800387,-175.01420175038797,1849.0298859408115,-118.12947829164212,1256.9669775485995,2011.01264478172,1329.3901386693378,315.7551179708744,-390.51582105717927,-2433.001226266033,100.31243371194007,4.61131646397394,-56.42184280437588
29.403795,2.2349694850470025,-175.88033425770794,1849.0295012169574,-116.72817350125656,1255.9868317317432,2011.0087019742903,1330.697178166457,355.20414058602324,-408.5847118187526,-2490.210772382914,101.44715165622873,3.446140748800007,-56.07323497248786
29.404798,2.2358131852833347,-176.76223896909858,1849.029077655766,-115.36161886991519,1254.992420193267,2011.004655725889,1331.9752704118953,394.9447273161308,-425.61805173445293,-2546.3878215762625,102.49132027814126,2.275137038493682,-55.720810975505856
29.405802,2.2366545106761326,-177.6592638714292,1849.0286147351246,-114.02964809112427,1253.9844693942935,2011.000507590548,1333.224709169418,434.88320146242444,-441.5677576255191,-2601.3975704403083,103.4438024465576,1.100437650733474,-55.36528646314724
29.4068,2.237493449555071,-178.57074398683042,1849.0281119595295,-112.73206743441717,1252.9637156933215,2010.9962592624013,1334.4458127557987,474.92573242010064,-456.39015778341917,-2655.1054881183586,104.30359746641435,-0.0758623412837738,-55.007370429648795
29.407799,2.238329990292558,-179.49600211678967,1849.0275688612285,-111.46865622156766,1251.9309045189927,2010.991912577401,1335.6389235173126,514.9785055394083,-470.0461870587501,-2707.3776063538567,105.06983885228497,-1.2517133700804886,-54.64776274921764
29.408802,2.239164121303888,-180.43434959745653,1849.026985001363,-110.23916732230214,1250.8867895370038,2010.9874695149354,1336.8044072865623,554.94789966002,-482.50156066841436,-2758.080794108012,105.74179185817935,-2.4251191899695543,-54.28715177777832
29.409803,2.239995831047396,-181.38508706523783,1849.0263599711109,-109.04332766889445,1249.832131812231,2010.982932199339,1337.9426528201805,594.7406720924364,-493.7269254457169,-2807.0830161426143,106.31885080389267,-3.5941442327236044,-53.926212031040215
29.410806,2.2408251080246058,-182.34750523175052,1849.0256933928242,-107.88083878902059,1248.7676989671254,2010.9783029012976,1339.0540712179675,634.2641507527593,-503.6979873740719,-2854.2535752126837,106.80053624129762,-4.75692049322914,-53.565601947686474
29.411806,2.2416519407803763,-183.32088566718974,1849.0249849211662,-106.7513773562448,1247.694264337424,2010.9735840391384,1340.1390953240373,673.426433088273,-512.3956143771977,-2899.463337763686,107.18649200597751,-5.911653940995975,-53.205961745312855
29.412807,2.2424763179030496,-184.3045015911595,1849.02423424424,-105.65459575750262,1246.6126061262266,2010.9687781800055,1341.1981791105572,712.1365913609769,-519.805913485879,-2942.5849432755003,107.47648220036685,-7.056630458412119,-52.84791137550805
29.413807,2.2432982280245923,-185.29761867000954,1849.0234410847172,-104.59012267694081,1245.523506557473,2010.9638880409145,1342.2317970446768,750.3048837848326,-525.9202816619463,-2983.4929976336343,107.6703881541292,-8.190221310733126,-52.492048583150776
29.414814,2.2441176598207364,-186.29949581971553,1849.022605200954,-103.55756369546884,1244.42775102986,2010.9589164896822,1343.2404434392502,787.8429709405126,-530.7354297323192,-3022.0642511310084,107.76820540607854,-9.310888155654956,-52.13894707367684
29.415809,2.244934602011116,-187.30938601333716,1849.0217263881025,-102.55650190537173,1243.3261272722248,2010.9538665457264,1344.2246317879715,824.664136819568,-534.2533790681305,-3058.1777619051213,107.77004074986928,-10.417187601893053,-51.78915479088086
29.416812,2.2457490433594067,-188.3265370920858,1849.020804479211,-101.58649853933012,1242.2194245014173,2010.9487413807317,1345.1848940855468,860.6835137790326,-536.4814308344711,-3091.715045790237,107.67610938315407,-11.507775326700653,-51.443192306936645
29.417813,2.24656097267346,-189.35019257903306,1849.0198393463127,-100.6470936131896,1241.108432583679,2010.9435443191821,1346.12178013354,895.8183106185592,-537.4321078333716,-3122.5602137078845,107.48673219688985,-12.581409762031559,-51.10155132588214
29.418815,2.2473703788054316,-190.3795924944927,1849.0188309015014,-99.73780658181721,1239.993941200517,2010.93827883875,1347.0358568325375,929.9880429262251,-537.1230691640425,-3150.6000978277884,107.20233323787534,-13.636955358305938,-50.764693301840936
29.419816,2.248177250651913,-191.41397417211024,1849.0177790979963,-98.85813700738046,1238.8767390200503,2010.932948570541,1347.9277074612885,963.1147647771725,-535.5769981274715,-3175.724367802882,106.82343737346069,-14.673385433503,-50.43304817363413
29.420817,2.248981577154062,-192.45257307470067,1849.0166839311871,-98.00756523938088,1237.7576128747767,2010.9275572991917,1348.7979309434897,995.1233008121628,-532.8214640041219,-3197.8256384151045,106.35066818277758,-15.689784613458135,-50.10701321802231
29.421818,2.2497833472977264,-193.4946236088819,1849.0155454396656,-97.18555310577123,1236.6373469466846,2010.922108962817,1349.6471411028929,1025.941477671856,-528.8887585304146,-3216.7995699634794,105.78474609394056,-16.68535086662955,-49.78695202453215
29.422819,2.250582550113568,-194.53935993756195,1849.0143637062386,-96.39154461448271,1235.516721960615,2010.9166076528006,1350.475965907424,1055.5003537179869,-523.8157080885645,-3232.5449626842633,105.12648678154876,-17.659397133138143,-49.473193595652106
29.423823,2.251379174677182,-195.58601678934863,1849.01313885892,-95.62496666468634,1234.396514386751,2010.9110576134242,1351.2850467030103,1083.7344459354604,-517.6434628020621,-3244.963846417635,104.37679983341283,-18.61135254354981,-49.16603157709429
29.424821,2.2521732101092162,-196.63383026396488,1849.0118710719037,-94.88522976711111,1233.2774956530945,2010.9054632413342,1352.0750374378179,1110.5819528804575,-510.41726389284617,-3253.9615666305463,103.53668768973276,-19.540763217723214,-48.86572362370105
29.425823,2.2529646455754877,-197.68203863276634,1849.0105605665142,-94.17172877273974,1232.1604313687697,2010.8998290848447,1352.8466038776164,1135.9849725194324,-502.18619080363817,-3259.4468677759337,102.60724485210187,-20.447292628332246,-48.572490907259166
29.426824,2.253753470287097,-198.72988313347415,1849.009207612132,-93.48384360920183,1231.0460805589566,2010.894159843069,1353.600422812984,1159.889713792616,-493.0028897181843,-3261.331974819965,101.58965735389525,-21.330721507781487,-48.28651777283649
29.427824,2.254539673500541,-199.7766087582529,1849.007812527094,-92.82094002418373,1229.9351949122304,2010.8884603648792,1354.3371812590776,1182.246700733156,-482.9232852220408,-3259.532673607097,100.4852024780038,-22.190947271585067,-48.007951550243334
29.428825,2.255323244517822,-200.82146503428325,1849.0063756795673,-92.18237033517482,1228.8285180410383,2010.8827356476875,1355.0575756486935,1203.0109679790314,-472.0062769365161,-3253.968390563336,99.29524870268521,-23.027982926224134,-47.736902526879895
29.429826,2.2561041726865563,-201.86370679600168,1849.0048974883941,-91.56747418487036,1227.726784756008,2010.876990836048,1355.7623110193563,1222.1422465291278,-460.3134230285422,-3244.5622720671527,98.02125585170323,-23.841955425263162,-47.47344408759424
29.430831,2.256882447400078,-202.90259494820455,1849.003378423906,-90.97557930155273,1226.6307203547412,2010.8712312200776,1356.4521001951641,1239.6051386172792,-447.90861255015705,-3231.2412636509075,96.664775421053,-24.63310343433655,-47.21761302621976
29.431831,2.2576580580975425,-203.93739721924126,1849.0018190087087,-90.40600226377465,1225.5410399257028,2010.8654622336896,1357.127662964132,1255.369280608755,-434.85772859367233,-3213.936189039245,95.22745105141144,-25.401774463994087,-46.96941003214366
29.432837,2.2584309942640295,-204.96738890355115,1849.0002198184313,-89.85804926867088,1224.4584476677796,2010.8596894526415,1357.7897252517737,1269.4094928626562,-421.2283042631936,-3192.5818288901382,93.71101911289271,-26.148421329981502,-46.728800353627705
29.433834,2.25920124543064,-205.99185359282947,1848.9985814824415,-89.33101690322795,1223.3836362260477,2010.8539185923898,1358.439018291659,1281.7059155510065,-407.08917346057376,-3167.116998983998,92.11730936667857,-26.873597903875574,-46.495714637810984
29.434837,2.259968801174592,-207.01008389514035,1848.9969046845247,-88.8241929178454,1222.317286044242,2010.848155505754,1359.076277793692,1292.2441294808657,-392.51011846495425,-3137.4846275104696,90.44824566669406,-27.57795412319304,-46.27004994550102
29.435837,2.2607336511193177,-208.02138214132714,1848.995190163526,-88.3368570015263,1221.2600647343972,2010.8424061803796,1359.7022431108448,1301.0152610294008,-377.5615162510736,-3103.6318310339993,88.70584666381868,-28.262230238761962,-46.051670937065026
29.43684,2.2614957849345547,-209.02506107810385,1848.9934387139522,-87.86828155803968,1220.2126264640847,2010.8366767360064,1360.3176564050955,1308.0160703732213,-362.3139854444071,-3065.5099886795515,86.89222647524342,-28.927250287730413,-45.84041122399839
29.437841,2.2622551923364385,-210.02044454724418,1848.9916511865315,-87.41773248240293,1219.1756113616427,2010.830973421538,1360.9232618133035,1313.249022272094,-346.8380357532855,-3023.074814069214,85.00959528246771,-29.573914792616964,-45.636074879080155
29.438844,2.26301186308759,-211.006868150318,1848.9898284887342,-86.98446993703782,1218.1496449397634,2010.8253026119053,1361.519804613763,1316.7223387529868,-331.20372165186177,-2976.286424558009,83.06025982290352,-30.203192699880084,-45.43843809642869
29.439845,2.263765786997201,-211.98367989845642,1848.987971585246,-86.56774912696065,1217.135337537767,2010.8196708047278,1362.1080303941635,1318.4500331327904,-315.4803020153069,-2925.109407361289,81.04662374190869,-30.816112585318,-45.24725099127893
29.440848,2.264516953921119,-212.9502408466596,1848.9860814983979,-86.1668210733731,1216.1332837828622,2010.8140846167678,1362.688684221695,1318.4519249163443,-299.7359073316066,-2869.5128822340953,78.97118777418889,-31.413753168027732,-45.06223952796806
29.441852,2.265265353761928,-213.90592571219233,1848.9841593085487,-85.78093338502796,1215.144062070666,2010.808550780175,1363.2625098160222,1316.7536352095988,-284.0372160340314,-2809.4705604516603,76.83654972586874,-31.997233189336665,-44.883107563499976
29.442849,2.2660109764690306,-214.85012347664255,1848.9822061544157,-85.40933102675157,1214.168234065226,2010.8030761385232,1363.8302487258518,1313.3865623945414,-268.4491414158107,-2744.960799946043,74.64540423111626,-32.567700727498796,-44.709538993216995
29.443849,2.2667538120387243,-215.78223797124795,1848.9802232333598,-85.0512570845124,1213.206344218757,2010.7976676426385,1364.3926395098108,1308.387837921291,-253.0345305048162,-2675.966656572322,72.40054225996131,-33.12632203230308,-44.541199984528966
29.444851,2.2674938505142785,-216.70168844512355,1848.9782118016149,-84.70595352643406,1212.258919311279,2010.7923323462144,1364.9504169223499,1301.8002621816913,-237.85387619227922,-2602.475931603993,70.10485035681972,-33.67426997543882,-44.37774128424146
29.445851,2.2682310819860074,-217.60791011605133,1848.9761731744686,-84.37266195915927,1211.326468010325,2010.7870774012151,1365.5043111053792,1293.6722205360281,-222.96504382670892,-2524.481215686129,67.76130959205064,-34.21271222221054,-44.21880058469025
29.446855,2.268965496591342,-218.5003547035198,1848.9741087263858,-84.05062437898096,1210.40948045085,2010.7819100530648,1366.0550467863352,1284.0575796685334,-208.4230134029047,-2441.979929600884,65.37299421134928,-34.74279923799585,-44.06400493357264
29.447855,2.2696970845149007,-219.378490943727,1848.9720198910757,-83.73908391716562,1209.5084278354554,2010.7768376356241,1366.6033424833745,1273.015564546882,-194.2796383964732,-2354.9743623175978,62.94306996960565,-35.26565224868779,-43.91297317203035
29.448857,2.2704258359885574,-220.24180508628515,1848.969908161502,-83.43728557890401,1208.6237620550216,2010.7718675659523,1367.1499097183805,1260.6106163552722,-180.58342221641487,-2263.4717069032777,60.47479213687937,-35.78235127821546,-43.76531838520036
29.44986,2.2711517412915057,-221.08980137239007,1848.9677750898347,-83.14447697533444,1207.7559153298141,2010.7670073388588,1367.6954522384592,1246.9122318598563,-167.37931317172854,-2167.4840949532786,57.97150316450553,-36.293923388181355,-43.62065034919099
29.450866,2.2718747907503216,-221.92200249424081,1848.9656222873402,-82.85990904809408,1206.9052998711124,2010.7622645212375,1368.2406652465952,1231.994784749715,-154.7085187720963,-2067.028630261347,55.43662999946094,-36.8013312448789,-43.47857795832727
29.451861,2.2725949747390257,-222.7379500355182,1848.96345142421,-82.58283678586469,1206.072307563386,2010.7576467461874,1368.7862346421286,1215.937329576935,-142.6083401070711,-1962.1274224784452,52.87368103541522,-37.30546213761384,-43.33871161657648
29.452862,2.273312283679141,-223.53720489275244,1848.961264229328,-82.31251993238979,1205.2573096670255,2010.7531617069224,1369.3328362717018,1198.8233889961268,-131.11202697240432,-1852.8076215073593,50.2862426897556,-37.807117569494835,-43.20066557741126
29.453863,2.2740267080397514,-224.31934767743,1848.9590624899722,-82.04822368545186,1204.4606565416184,2010.748817150469,1369.8811351913175,1180.7407250769434,-120.2486543359509,-1739.1014533428854,47.67797559736441,-38.30700353787119,-43.064060217128336
29.454865,2.2747382383375574,-225.0839790987111,1848.956848051451,-81.7892193863092,1203.6826773897344,2010.7446208711515,1370.4317849401402,1161.7810955320765,-110.04302065885969,-1621.0462579950067,45.05261041350286,-38.80572161654723,-42.92852422783491
29.455865,2.27544686513693,-225.83072032664793,1848.954622816674,-81.53478519910479,1202.9236800211786,2010.7405807038665,1370.9854268266574,1142.039995766532,-100.51556851050167,-1498.684530026297,42.41394321915869,-39.303760945696055,-42.79369671779362
29.456869,2.2761525790499633,-226.55921333581165,1848.952388745651,-81.28420677977047,1202.1839506376475,2010.736704517151,1371.5426892278053,1121.616387710347,-91.68232783777974,-1372.0639620978168,39.76583052240651,-39.80149122755772,-42.65922920835494
29.457869,2.27685537073652,-227.26912122925518,1848.9501478549275,-81.03677793396254,1201.4637536377063,2010.7330002060423,1372.104186901659,1100.6124164452542,-83.55488217086587,-1241.2374917542234,37.112183848754825,-40.299156815974676,-42.524787518122615
29.458872,2.277555230904281,-227.9601285427548,1848.9479022169446,-80.79180126357768,1200.7633314419963,2010.729475684732,1372.670520314265,1079.1331156753902,-76.14035796741814,-1106.2633514935296,34.456963912283854,-40.796871975321274,-42.39005352620891
29.459877,2.2782521503087927,-228.63194152929006,1848.9456539593295,-80.54858880141036,1200.0829043385636,2010.7261388790182,1373.2422749811885,1057.2861031225787,-69.44143721492962,-967.2051219649164,31.804174357977605,-41.29461736958315,-42.25472680741318
29.460874,2.2789461197535092,-229.28428842373793,1848.9434052641157,-80.3064626335263,1199.422670348186,2010.7229977185577,1373.820020824324,1035.1812669479264,-63.45639332467845,-824.131787924052,29.157855064500932,-41.792237825795326,-42.11852613293781
29.461875,2.2796371300898337,-229.9169196877709,1848.9411583668864,-80.06475550893951,1198.7828051095667,2010.7200601289212,1374.4043115445177,1012.9304443137979,-58.17915025918858,-677.117796354385,26.522074996278977,-42.28944139870878,-41.9811908309876
29.462878,2.280325172217158,-230.5296082349637,1848.9389155558467,-79.82281143619426,1198.163461784243,2010.717334023452,1374.995684010521,990.6470932043209,-53.59936473659114,-526.243115940016,23.9009245945246,-42.78579974658331,-41.842482002477226
29.463877,2.281010237082901,-231.12214963612692,1848.9366791708192,-79.57998626646659,1197.564770981057,2010.7148272949332,1375.5946576647893,968.4459586189464,-49.70253124857731,-371.59329685660214,21.298507698869063,-43.28074981226847,-41.70218358818053
29.464878,2.281692315682547,-231.69436230489924,1848.934451602163,-79.33564826281459,1196.986840700015,2010.71254780707,1376.201733946617,946.4427342422191,-46.47010951325523,-213.25952963745306,18.718932993958795,-43.77359678948647,-41.56010328488755
29.46588,2.2823713990596732,-232.24608766364133,1848.932235289619,-79.08917865522008,1196.4297562953577,2010.710503385784,1376.8173957330898,924.7537206733593,-43.87967386064179,-51.338701679118856,16.166304978005257,-44.26351834126676,-41.41607330929204
29.466883,2.283047478305988,-232.77719028968718,1848.9300327210742,-78.83997218107937,1195.8935804576565,2010.708701810329,1377.4421067983155,903.4954812712471,-41.905083918176196,114.06655021865201,13.644714452466594,-44.749570025452485,-41.26995100932241
29.467882,2.2837205445613575,-233.2875580420199,1848.9278464312513,-78.58743761081497,1195.3783532147297,2010.7071508042307,1378.0763112913708,882.7844966345251,-40.51667582858259,282.84779302243993,11.158228534266634,-45.23069187070244,-41.12161932354302
29.468887,2.2843905890138356,-233.7771021684493,1848.9256790003176,-78.33099825829545,1194.884091951179,2010.7058580260534,1378.7204332333945,862.7368186946189,-39.68147309462401,454.8907581889447,8.710880195153278,-45.70571603501182,-40.970987090254454
29.469886,2.2850576028996903,-234.2457573933798,1848.9235330524127,-78.0700924757653,1194.410791446329,2010.7048310600037,1379.3748760342303,843.4677253540942,-39.36341600608353,630.0753118444691,6.306657337627041,-46.173375467177635,-40.81798920903099
